,yaw,pitch,roll,x,y,z,acc_x,acc_y,acc_z,omega_x,omega_y,omega_z
0,-2.7719335234927653,0.08949530355982555,-0.13045592927129251,4.99930655881018,-0.4564972711931693,-0.18669803377675442,-0.029912393682275634,0.028646137717435526,0.0,0.0,0.0,0.0
1,-3.0913449722075055,-0.13898645736874582,-0.15899464448287084,4.900755271453611,-0.010402320814227206,1.6491225097695157,-0.006820093301798165,0.055410938749949616,0.0,0.0,0.0,5e-05
2,2.7846596875424243,0.026411842335723426,-0.04704657865359923,5.130372106926956,-0.36634014776808976,0.6005710973613666,-0.007663675543693707,0.05326400054653411,0.0,0.0,0.0,0.0001
3,-3.0672814317676345,0.06884370252408485,0.29117321401216406,5.0539930239745114,0.5922051747987956,-0.35004617076654815,-0.009173192625083674,0.03478732259780716,0.0,0.0,0.0,0.00015000000000000001
4,-2.7181651858521447,-0.0788992099572246,-0.07695882375095804,5.149138152177932,0.2372552014431672,0.12950381166310837,0.009598217625992875,0.04381144226217805,0.0,0.0,0.0,0.0002
5,-2.770391432013905,0.1373532434499036,0.1632105199291795,5.5393429069076765,0.23167210465683274,0.1809649432023922,0.009247946927564725,0.038317034898298304,0.0,0.0,0.0,0.00025000000000000006
6,-3.010476203138425,0.12284617903066122,-0.16571841506893276,4.579405211304376,-1.5766353486324993,0.07545269124111342,-0.02288567749892215,0.05679577312722783,0.0,0.0,0.0,0.00030000000000000003
7,2.8778059746503772,-0.1567228860146939,-0.26287344693125797,5.294597577557583,0.007735698944819236,0.2990908922389859,0.0053054942745017685,0.06158165130074585,0.0,0.0,0.0,0.00035000000000000005
8,-3.0096665185393183,-0.04413240129524711,0.2077423164022077,4.779259357125169,0.011435996476311383,-0.4901504725249099,0.007673107975457247,0.033182169270380854,0.0,0.0,0.0,0.0004
9,-3.07489450174888,0.1738952407084746,0.25440486021417574,5.346346723880026,0.4649714269339015,-0.2315635497001443,-0.0036620729031702293,0.05107319271311707,0.0,0.0,0.0,0.00045
10,2.9635907434187536,-0.03350966037255142,0.2709515256172854,5.14878276737468,0.3511520104868977,1.2071462091048846,-0.014402095321669193,0.045148345675829274,0.0,0.0,0.0,0.0005000000000000001
11,2.8049054716199997,0.0006571063844211035,-0.20861354162980675,5.3136290611439465,-0.4731649948720972,0.448343891658421,-0.009548299325857804,0.038860215217728526,0.0,0.0,0.0,0.00055
12,-2.996213181003031,-0.16318762523564714,-0.09098286559602287,5.172753010423679,-0.2141595174760188,0.6417260991687278,0.012522876879298338,0.05294515924695393,0.0,0.0,0.0,0.0006000000000000001
13,-3.09638462373422,0.10286149733684684,0.15146618039840606,5.036636124514389,0.2570843673816906,-0.15570023578364395,0.009107160402535426,0.028409388810653205,0.0,0.0,0.0,0.0006500000000000001
14,-2.8888149105986267,0.4062094806443394,0.13131501799575498,5.012988297135066,0.1778108733968139,-1.0652261601786863,0.00705579482280249,0.05021277033844386,0.0,0.0,0.0,0.0007000000000000001
15,-3.125375296234144,0.08270116221859355,-0.008331835346417482,5.088811352691113,-1.0338386701621485,-0.5253825856608944,0.012714218365422298,0.05070774314677064,0.0,0.0,0.0,0.00075
16,2.7478542271575632,-0.20313978153967904,-0.3522990927056151,4.76919692873989,-0.8030485556572756,0.08844324257192948,0.007468862650587945,0.035528151925141416,0.0,0.0,0.0,0.0008
17,2.934580469232829,-0.01765696919715721,0.16998836047900054,5.122726740504807,-0.057501691697178114,0.3252718157491974,-0.009666478103549673,0.0399144460942997,0.0,0.0,0.0,0.0008500000000000001
18,2.9326604970223684,-0.23088753973621043,0.19320825673727132,4.3475904973834085,-0.3538347433150814,0.35337646581587895,-0.0065938496631275725,0.04289706149565026,0.0,0.0,0.0,0.0009
19,2.843948194259592,0.12102392643759337,-0.24828701909332068,5.456715940665078,-0.00646500935742933,-1.4624254268961765,0.001843365011843337,0.05862234370862039,0.0,0.0,0.0,0.0009500000000000001
20,-3.0712089910126643,0.18639463065060796,-0.126408162059903,5.360675952820339,-0.704542247813845,-0.0016372169063594288,0.003302362959011023,0.03925534267615083,0.0,0.0,0.0,0.0010000000000000002
21,-2.653674703505274,-0.08245042385144287,-0.08432501800831027,4.49784503475749,0.18959586061442985,0.12380321947557456,-0.009139783281353443,0.034156187140046895,0.0,0.0,0.0,0.0010500000000000002
22,3.079619994436199,-0.007317015812655948,-0.1241463690583431,4.341624653845234,-0.20615919428243024,-0.8265253138486444,-0.009080709410586345,0.04758488687288445,0.0,0.0,0.0,0.0011
23,2.8965095680638138,0.018991105824145055,0.07374673582056021,4.745513172527113,0.4187916679581426,-0.14343683951760192,0.018238127935393242,0.04082059187274563,0.0,0.0,0.0,0.0011500000000000002
24,-2.770312352100862,0.04085620349817496,0.048887587246356806,5.132994226410773,0.24126769878257265,-0.059858532016134065,0.015404830487142394,0.056189781786014234,0.0,0.0,0.0,0.0012000000000000001
25,-3.1031414426328396,0.009027326277461752,0.12806131449804123,5.0277620724044985,0.9604892147115871,-0.07398596938155616,-0.020130407214503668,0.044188429295747685,0.0,0.0,0.0,0.00125
26,3.055885320009106,0.028727247323459517,-0.050397975323808325,4.51814779383822,-0.04565080679791411,-0.7564489513604341,-0.012764276957272318,0.05087247748511462,0.0,0.0,0.0,0.0013000000000000002
27,-3.039305567946116,0.01120003214501831,0.1607043043295362,4.76529887301176,1.4846471598871105,-0.1601022270611151,0.0005423019810800031,0.07930137257000226,0.0,0.0,0.0,0.00135
28,-3.041640405276225,0.21427486457795383,0.007200716689040878,5.532261982199961,-0.0670680872240822,-1.0049475502380276,-0.00045894218724495993,0.04040643140410839,0.0,0.0,0.0,0.0014000000000000002
29,-3.033085629691155,-0.06545562676722848,-0.19869813318650079,5.4237940633212105,0.08834898634310007,-0.06613902610328609,-0.014864894572937399,0.046359055879667786,0.0,0.0,0.0,0.00145
30,-3.0747442799317564,0.009575216772863989,-0.030766098211565052,4.959360207094809,0.9466929255436666,0.5718825993538132,0.007810857654184162,0.04849144866104806,0.0,0.0,0.0,0.0015
31,-2.9969722954848543,-0.03437471320970157,0.10226374354469815,4.923187061037858,0.23562408342729504,0.3411369747161873,-0.0033096483612258714,0.06303234547525591,0.0,0.0,0.0,0.00155
32,-2.8588731150938416,0.11391173945545811,-0.14780153870594998,5.1871912533759374,-0.4076958363286409,0.10692695027760202,0.005055833622279158,0.06375912959284508,0.0,0.0,0.0,0.0016
33,2.9054020631239426,-0.11492910840293834,0.21728500801789924,5.132125880788703,0.34651058517870004,0.9182344682326453,0.00362425564970395,0.039661777314481304,0.0,0.0,0.0,0.00165
34,-2.713484907062675,0.20163687981287878,0.09535270465404116,5.122369377541865,0.020172001253368266,-1.5630975248626298,0.0017347865651078328,0.053711093994604234,0.0,0.0,0.0,0.0017000000000000001
35,-3.0050987119722,-0.1271088168410496,-0.24256566160249413,5.299264125950693,-0.7959237085872206,0.21971782074813778,-0.011790928193584774,0.04656090073546055,0.0,0.0,0.0,0.0017500000000000003
36,2.9523205934798225,0.023181459435748543,0.05733710111218847,5.385535445252091,-0.5716912127914029,0.1209671905486325,-0.004922489109129492,0.05505864739204756,0.0,0.0,0.0,0.0018
37,-2.7641799300081544,-0.16358114434369714,-0.09276206756236462,4.830613972845524,-0.4012001777572306,0.3138341640942268,-0.005309032536516203,0.05984213010296934,0.0,0.0,0.0,0.0018499999999999999
38,-3.124654372063579,-0.09756807614935517,-0.15988466281639985,4.419541685457812,0.15346600050747666,0.4749168141423468,0.0031306658878239376,0.060924482404743435,0.0,0.0,0.0,0.0019000000000000002
39,2.4888160528278824,-0.11824369975033595,-0.11102181040826976,4.52066502392873,-0.5344975547406133,-0.05273762701626472,-0.011762985123909992,0.04327422284576794,0.0,0.0,0.0,0.0019500000000000003
40,2.6591233278960194,-0.047984920858878184,0.1141867249491701,4.934043599176489,-0.024080279985771003,1.365091296466147,-0.01092100439807963,0.05543550715135565,0.0,0.0,0.0,0.0020000000000000005
41,-2.7459045691074935,0.027633096632844634,-0.01579594513845776,5.138863919694864,-0.2521550332463075,-0.6770210835190437,0.005480673006255522,0.03611178413441546,0.0,0.0,0.0,0.0020500000000000006
42,2.7133526295018533,0.10902005804603791,0.05413661425252213,5.270096979347982,-0.11895248984919031,-0.8932960049300792,0.011644671838883716,0.049688064835368834,0.0,0.0,0.0,0.0021000000000000003
43,3.032630247066227,0.12967084379538207,0.014550634120815949,4.72773609144409,0.7614872087903306,-0.6716140480881125,-6.033935180175392e-05,0.03467727029914691,0.0,0.0,0.0,0.00215
44,3.0571403027239787,0.09546329816892571,-0.3091938236083944,5.138725060720921,-0.33665863504591087,-0.6691855558094213,-0.01338399879913561,0.052640834008579336,0.0,0.0,0.0,0.0022
45,-3.0043525907900523,0.07239772497432398,0.13475349274455048,4.9445748238519105,0.7098831601713467,-0.7826326049347908,0.0028361114659161664,0.04676187648193871,0.0,0.0,0.0,0.0022500000000000003
46,-3.070667152653081,-0.026219352347239853,-0.1389468434707713,4.927652886682638,-0.5531687038821699,0.23497561131176106,0.00194815502984969,0.03835288143726821,0.0,0.0,0.0,0.0023000000000000004
47,2.9610973738509307,0.05125547356751877,0.08407981357776205,5.428418087484152,-0.5038028849634023,0.39386384918507533,0.009437913384113017,0.04414721371811483,0.0,0.0,0.0,0.0023500000000000005
48,2.9214191575534953,0.0018550162548239251,0.024776538276798692,5.452532906088474,-0.6760234692244559,0.42210989146309513,-0.018624617408029166,0.04504367896058736,0.0,0.0,0.0,0.0024000000000000002
49,-3.074073826329116,0.04549612221200316,-0.031072008207895838,5.192040374138642,0.33998356321855583,-0.07897264142526922,-0.016854322780527033,0.061993094030093815,0.0,0.0,0.0,0.00245
50,-2.5626809015015626,-0.19774668478248983,0.05305730945014042,4.624433941630186,0.8671630719539967,0.7836156714155883,-0.008881975883003,0.06058115069745886,0.0,0.0,0.0,0.0025
51,2.9574463553923533,0.10708876686646883,0.3860218674239157,4.806471352682545,1.3013744535695975,0.4751708298816733,-0.004832807364042104,0.05522510038358761,0.0,0.0,0.0,0.00255
52,-2.841470949832431,-0.04416364912343912,-0.013255318614191332,5.495326307163255,-0.7997982092600592,0.27446579881550415,-0.003917390851557687,0.04973102689527488,0.0,0.0,0.0,0.0026000000000000003
53,-2.9832108981031915,0.1329735306228055,0.010399488953986175,4.726173613182689,0.5257948617754549,-0.18718555371412887,-0.017272418629664953,0.05286668150529236,0.0,0.0,0.0,0.0026500000000000004
54,-2.9846547546988056,-0.19382861819118175,0.1496149650846705,4.877719861355491,0.33570653331877,0.7221543700669606,-0.0004036456774961198,0.052528313277552724,0.0,0.0,0.0,0.0027
55,-2.8000099061603336,-0.06252597792257403,-0.03815242415547578,4.581187522128085,0.38442427564737236,0.7345086283409965,0.0015075342963520061,0.04427724690124317,0.0,0.0,0.0,0.0027500000000000003
56,-2.0219067564469135,0.07296606382655935,0.11873148026021098,4.976670815145659,-0.05928797090297172,0.3911390459644155,0.005051252730487075,0.0415410007442662,0.0,0.0,0.0,0.0028000000000000004
57,-3.1244129811146695,-0.15026186435541283,-0.10969115577923665,4.609254465383966,0.549797515009266,-0.06191149405024937,-0.007223362811284736,0.057650168046363845,0.0,0.0,0.0,0.0028500000000000005
58,3.058879952022804,-0.09586189674422006,-0.18180374144465355,4.919381614024603,-0.6749397525719978,-0.48656798516871763,-0.0008384138008783206,0.04867386886233023,0.0,0.0,0.0,0.0029
59,3.107914291593847,-0.22289179487379057,-0.06326324469194569,5.2419342535809,-1.7568747373767624,0.3340988318428446,0.013910413402328037,0.04759535982397965,0.0,0.0,0.0,0.00295
60,-3.00009562546345,-0.14677592108574936,0.0019975384402449348,4.8332781383452526,0.6811096592662318,0.49016754660132755,-0.007644816328433142,0.044281891075357196,0.0,0.0,0.0,0.003
61,2.847955985862379,-0.006331573372733058,0.14801796794982539,5.397942925747794,0.7101288453702931,0.24259647640273613,-0.0019804150391220326,0.049655405501156505,0.0,0.0,0.0,0.0030499999999999998
62,-2.8727068451116207,0.10406736042240312,0.14331504326330183,5.331514003209065,1.1201398677411833,-0.2538679534688525,0.006204391207246721,0.05963933256166305,0.0,0.0,0.0,0.0031
63,-2.724197668017158,-0.17589057984638032,0.2876186219381922,4.791959961893555,0.19382923128499913,-0.5457412324128041,-0.014248085804646383,0.0463384768551833,0.0,0.0,0.0,0.00315
64,-2.8164459173502485,0.10274525388251964,0.021761805769154145,5.115499331684446,0.2650063128342549,-0.5709282910410498,0.004010213021348461,0.04303357327359911,0.0,0.0,0.0,0.0032
65,-3.016088787301482,-0.07830950428866597,-0.08272936174933554,5.013361060366012,0.01578094700726812,0.40252836195874886,0.010737491359800188,0.07273069125261565,0.0,0.0,0.0,0.0032500000000000003
66,-3.0399107843372564,-0.09797255271219517,-0.15503263473023454,5.390960454083404,0.8032659636131503,0.3079180238886334,-0.015062507275754129,0.05722284695620803,0.0,0.0,0.0,0.0033
67,2.734159590591394,0.0019157887701258358,-0.1262373025675187,5.462710988161259,-0.561750741946871,0.7907239473591748,0.0013729860838268694,0.05195517373003473,0.0,0.0,0.0,0.00335
68,2.5106602025341838,0.04006718074984782,-0.10478793552526705,5.143309264198865,0.07951314704447565,-0.5635048156952738,9.530784855236943e-05,0.051892377643733334,0.0,0.0,0.0,0.0034000000000000002
69,-3.127032784514459,-0.0016793342628242394,-0.08145274217178447,4.6797374011168165,1.0154436924114894,0.15872366254193665,0.005947554382821829,0.04665269993990415,0.0,0.0,0.0,0.0034500000000000004
70,-3.011024015711159,0.0862339175170974,-0.08074308355629764,4.7077208436353155,-0.9286185868227039,-0.03284912593299527,-0.0024676768191116212,0.06525242427154088,0.0,0.0,0.0,0.0035000000000000005
71,2.8594540801412633,-0.11497225605686318,-0.03340749955352167,4.970639976779515,-0.2432865053407458,0.24408404539884399,0.0029582994545212502,0.04097549614940534,0.0,0.0,0.0,0.0035499999999999998
72,-2.745298405152176,-0.13378440633062427,0.2413649460004733,5.450775603804266,0.3930354082035597,-0.4335738567546195,0.020931420825991916,0.04275054883724538,0.0,0.0,0.0,0.0036
73,-3.066915332599817,-0.04088951489842312,-0.032923805436281886,5.113685658087965,-0.357713645921243,-0.019002017686328136,0.0061197022309577,0.04277059045446792,0.0,0.0,0.0,0.0036499999999999996
74,3.0770145758953626,-0.09586402116860682,-0.24787768044958655,4.986734089514346,-1.5827082925417542,-0.7949046633306156,0.002110096134522325,0.04227373654964699,0.0,0.0,0.0,0.0036999999999999997
75,-2.5826828371894517,0.0474468208607986,-0.1423083951597605,5.364625405866704,-0.32777905393498524,0.23160498421169667,0.004818099502075527,0.06284769158883122,0.0,0.0,0.0,0.0037500000000000007
76,-2.8046102376210515,0.07946185607771696,-0.10450782933883866,4.902641610972411,-0.5028446909479449,-0.030394231147158224,-0.0024072865884219546,0.05818814134806995,0.0,0.0,0.0,0.0038000000000000004
77,2.4219033592001353,-0.03894017729247969,0.02575472307414623,4.429153270754752,-0.025054380433152973,0.5234118382817788,-0.006670123992420855,0.0571927103589625,0.0,0.0,0.0,0.0038500000000000006
78,2.5592065052809474,-0.2793602354018478,-0.05585500730881807,5.223767460590962,-0.13645168845920308,0.5768160379145135,-0.011362606113058813,0.05367694677388305,0.0,0.0,0.0,0.0039000000000000007
79,-2.943389566345046,-0.14157065073608557,0.22488786135396985,5.007636015545889,-0.18618634681507382,-0.47702680754843796,-0.005411438563087488,0.032264911658473464,0.0,0.0,0.0,0.00395
80,-2.9771605959131233,0.012867460655357717,0.067948581950558,4.747559312617948,-0.14321483006650515,-0.15520934484276255,0.0013454878515140388,0.04772660012662523,0.0,0.0,0.0,0.004000000000000001
81,-3.067749037979515,-0.02639928382030758,-0.3022365779307569,4.868714908337116,-0.40174219946612655,0.18021799646613237,0.004236379634111048,0.07300169932149812,0.0,0.0,0.0,0.004050000000000001
82,2.288994107595725,-0.09717488889724513,-0.031447967412253724,4.676325716379352,-0.7103187101359391,-0.40698296073925444,0.016230301819115153,0.03804240763672116,0.0,0.0,0.0,0.004100000000000001
83,-2.958031870916156,0.13413748886889867,0.1705530557670742,4.9647059113885295,0.2778632408535905,-0.6112918892999744,0.014123440650178697,0.032441247124627384,0.0,0.0,0.0,0.004150000000000001
84,-3.110201489167396,0.12989223689065266,0.0013732186849673487,4.571435958369045,-0.10064870918838824,0.22031139746583003,-0.019630504991261077,0.04505653572972867,0.0,0.0,0.0,0.004200000000000001
85,2.9958297481723215,-0.10036321619361456,-0.38114864384127184,5.413720881292315,-0.8818962337183847,-0.1229932489572132,-0.003712071872507059,0.06262635396462388,0.0,0.0,0.0,0.00425
86,2.7797040184604116,0.08459325926217612,0.08083807923074149,5.652783269624089,0.34042217070792724,-0.26260935172023897,-0.0045342945808189965,0.04617955792653282,0.0,0.0,0.0,0.0043
87,2.942525600118537,-0.22152011435982188,-0.11605751265998854,5.361688015549897,0.6155481514592703,1.074099490543369,0.003975859474964311,0.06396220840219961,0.0,0.0,0.0,0.004350000000000001
88,3.0698176301254736,0.025315604080377068,-0.03443440262531167,4.966930665716262,0.6292930895612808,0.027403340333777823,0.012236003549280876,0.04004220125240811,0.0,0.0,0.0,0.0044
89,2.9081863818147267,0.007083849113726198,0.09592455688299259,5.36663964663721,-0.3105642249795671,1.2604964105487286,-0.005679032276509236,0.0675657300457838,0.0,0.0,0.0,0.004450000000000001
90,-3.0696331368630814,0.180949954667318,-0.03420057419794314,5.137109501999385,-0.17286732458860438,-1.2740274111402914,0.01596941428821277,0.050790876896013,0.0,0.0,0.0,0.0045000000000000005
91,-2.7349697545685396,-0.02593698619677916,-0.10479768049179439,5.277935877768368,-0.3641093454779401,0.46607093568911423,-0.0010283737264435264,0.051720767910697824,0.0,0.0,0.0,0.00455
92,-3.079115515862972,-0.2317699389669721,0.14244532098277418,5.309992047565884,0.46819011455209636,1.5624906004381431,0.005483830799171649,0.044578196068551026,0.0,0.0,0.0,0.004600000000000001
93,3.1223938943822875,-0.00830739204013148,-0.025944387145686507,5.035757407091543,-0.38892448147419467,-0.3446279090363267,-0.002303348542471547,0.05935405553943328,0.0,0.0,0.0,0.0046500000000000005
94,2.9537971394420794,0.015574029808653678,-0.13679661639816654,4.667828914519941,-0.7917330266676285,-0.6862537882292674,-0.0044323668301566215,0.06672565068211751,0.0,0.0,0.0,0.004700000000000001
95,-2.832242102912822,0.05779469850591826,0.02682397858911776,4.692173232974766,0.2586379711006612,0.2575500273096095,-0.0050878376306872026,0.05603918452700466,0.0,0.0,0.0,0.004750000000000001
96,-2.9035433781475106,-0.3072532371015365,0.06889741180794057,5.1284529865834125,1.1528122028873187,1.0666351093503126,-0.0002528200779642885,0.04225388212298806,0.0,0.0,0.0,0.0048000000000000004
97,-3.0086322516914565,-0.02129336454030093,-0.15399695250355233,4.876910964047368,-0.6902355522384214,-0.5493589306242692,0.0012264451786941106,0.05066101150325232,0.0,0.0,0.0,0.00485
98,2.862552480714033,0.0005077070168662889,0.1934593528902399,4.67745413159413,0.06814803821663062,1.0475190169873803,-0.016701268824013193,0.05358890784720999,0.0,0.0,0.0,0.0049
99,2.549922567788602,-0.08024222622628106,-0.08580864466698329,5.166101592782428,-0.5729004694140795,0.5229524251642628,0.001475610709605632,0.05941892162745707,0.0,0.0,0.0,0.00495
100,3.125990474998906,-0.049889599139540976,-0.05629626053935513,5.036721046509753,-0.20445424799869585,0.05659617008681139,0.010220614576095164,0.05858036639586355,0.0,0.0,0.0,0.005
101,3.095577089541471,-0.09797832379021837,0.019054039084259792,4.092646645384417,-1.1078839441720638,-0.37723862603160435,0.0017479878564798,0.058237914350740286,0.0,0.0,0.0,0.005050000000000001
102,2.4076235451759382,0.004254721348897915,0.03169572058624345,5.219643403933232,1.1946035795335257,-0.07857430691334566,-0.009467932686877546,0.042207940061281826,0.0,0.0,0.0,0.0051
103,-2.9300017563831013,-0.2956359741827804,0.10903986367558591,4.695354763776266,0.8789795758925963,0.890943934486934,0.006677669869184477,0.046957349274911256,0.0,0.0,0.0,0.00515
104,2.815763168319162,0.12087629091152825,-0.047215645530708866,5.561539280511421,0.3897462363728893,-0.9803828766000169,0.00984471656021066,0.0515283312533584,0.0,0.0,0.0,0.005200000000000001
105,2.9558960572033453,0.20720319444103896,-0.054437415193375464,5.01357450425361,1.1427123139054651,-0.5690021641605671,-0.0024278674161737133,0.04537652342924204,0.0,0.0,0.0,0.00525
106,-3.019102613030869,-0.031053879067128042,-0.08380956385069126,5.159902246653975,-0.34688823022429943,0.6136848246095925,-0.004000222878434892,0.05983849223724807,0.0,0.0,0.0,0.005300000000000001
107,2.5890511520112907,-0.1471870339875704,-0.11827053108932398,4.925102606517651,-0.7766433479938694,-0.03796118382899322,0.01894613321449805,0.043352650929420915,0.0,0.0,0.0,0.005350000000000001
108,-2.4913953666850928,-0.04750243540081617,-0.08450203669354382,4.53687517509444,0.00045140127780321504,0.16948039494287007,0.013475620408184704,0.04831285789244185,0.0,0.0,0.0,0.0054
109,-3.070117496620483,0.09725285683835692,0.07052515789543626,4.695055351461865,0.22920078370428154,-0.7067177541448069,0.0014846714746804446,0.05831745391701994,0.0,0.0,0.0,0.005450000000000001
110,2.2129097639890625,0.006621939383321435,0.012680406451197685,4.780351383002129,0.06520691168650632,0.4568721282491138,-0.008714010208981292,0.05902992314406092,0.0,0.0,0.0,0.0055000000000000005
111,2.8800753654321216,0.08471193912230568,-0.028944213561589174,5.316404630583275,-0.21643506120679878,0.8401343119568709,0.011196494448238035,0.05728990071254423,0.0,0.0,0.0,0.005550000000000001
112,2.907701825881279,-0.1158138460849683,-0.007422483303888463,5.4569235892592785,0.05043926726251752,0.5287452763039145,-0.0072298658599598345,0.06467948694730168,0.0,0.0,0.0,0.005600000000000001
113,-3.1404881260750312,0.026914214298942297,-0.039509137237105627,4.972447315906237,-0.42144676147768934,0.7366464860741436,-0.01261237600950458,0.050350262397681984,0.0,0.0,0.0,0.0056500000000000005
114,2.1928223984853443,-0.030358062885416034,-0.0918014589951573,5.10643894231883,0.42255705877151745,0.19217323063102953,0.006969835010723283,0.0308538353343003,0.0,0.0,0.0,0.005700000000000001
115,2.455588662355906,-0.11687534818489329,-0.10359404590114407,4.918364929806933,-0.39589892616929134,0.47418785451192375,0.0013655481373619884,0.061448442019088514,0.0,0.0,0.0,0.005750000000000001
116,3.1110600662381933,0.07631156012896922,-0.0858778614960253,4.461088612979086,0.79529538199602,-0.616467316187608,-0.00022209586576803371,0.050599825029762055,0.0,0.0,0.0,0.0058
117,-2.5816756101583076,0.19746842881066673,0.224469029936288,5.137834164280678,0.14761104629777877,-0.795338548619105,-0.008163408408694383,0.05301808313732442,0.0,0.0,0.0,0.005849999999999999
118,-2.7945254747666506,-0.09342561324581383,0.06698938396132072,4.834404573314401,0.06592673149000763,0.446049907916492,0.004072210065024158,0.07072982645336448,0.0,0.0,0.0,0.0059
119,3.1233267356951937,-0.08805649630106248,0.05569913658318937,4.84811311646664,0.0570259521740305,-0.06573999976362996,0.00562311531983077,0.06526109458873945,0.0,0.0,0.0,0.0059499999999999996
120,-3.015651085570134,0.06987951475017168,0.03527101006522311,4.616512703772234,-0.6636625898214111,0.14087844598037755,-0.001108358856739362,0.05146527792781466,0.0,0.0,0.0,0.006
121,-2.890883039615058,-0.14965954707740017,-0.05468139432218872,4.868208793139729,0.1199540827150441,1.3241305939692043,0.0032796488186260025,0.05795809253471691,0.0,0.0,0.0,0.00605
122,2.7469303434311465,-0.08198550392791436,0.10266198382201176,4.90227418848001,-0.24294374043394268,0.5697266081806764,0.008299466395889316,0.03558934777873482,0.0,0.0,0.0,0.0060999999999999995
123,2.9057909105925583,-0.1371369367051756,-0.07255810494423472,5.036704344114996,0.08295035416664832,0.7255169918587104,0.013675000045361308,0.05819680477185794,0.0,0.0,0.0,0.00615
124,2.7149773871617917,0.263186498481258,-0.07245436644860218,4.820298126856088,0.8209812173673448,-0.9053523843426315,0.010563419449678353,0.050281134252221436,0.0,0.0,0.0,0.0062
125,-2.635628704346561,-0.02143203037556908,-0.23798645626395415,5.046119319776152,-0.8254754320588612,-0.18002595259314158,-0.004205494108318829,0.04590076672939453,0.0,0.0,0.0,0.00625
126,-2.9234955449026674,0.05940274513389346,-0.02630487102287462,5.065005415279605,-0.9807843169767223,0.6386044757083752,-0.004920675544874847,0.051298543617927704,0.0,0.0,0.0,0.0063
127,-2.9661246930274414,0.23851429375432698,-0.13812520813810944,5.013497576419375,-1.2869648056138916,-0.6455877880898165,-0.012633728670892536,0.04937306799839134,0.0,0.0,0.0,0.00635
128,2.6440421809028964,0.055649479641184926,0.00032594729724988057,5.116987114228875,0.15300573928964414,-0.4543986843342382,-0.013313443951953056,0.044055278836158965,0.0,0.0,0.0,0.0064
129,-3.0798790168223804,-0.05291905291601322,0.09732656761720988,5.13897028994044,0.5537032386490437,0.2099457241678257,-0.0024372620625642237,0.04661544055671448,0.0,0.0,0.0,0.00645
130,2.8738766270634466,0.04320503162892993,0.10833658684556492,5.183787457809743,-0.024547052721600432,-0.3462939782545068,0.00045444700097389617,0.04417185203112801,0.0,0.0,0.0,0.006500000000000001
131,-2.5547302368216296,0.20193677610525584,-0.1985211183023793,4.6651149183952425,-0.9185994834334791,0.30627694820722373,-0.007706972377348903,0.051028708340837836,0.0,0.0,0.0,0.00655
132,-2.7689053437863107,0.1303817990371633,-0.034791779725935,5.186776503588394,0.662780508325133,-0.8204992411119838,-0.008550738547153507,0.04767052335690421,0.0,0.0,0.0,0.0066
133,-3.0396476769966365,-0.0884073149596946,0.0016925432404787267,4.590535418323472,0.4253501196409635,0.14715760096712618,-0.011853145268588555,0.05151086749006672,0.0,0.0,0.0,0.0066500000000000005
134,2.7978247900058753,-0.0810635715347699,-0.13837433391195705,4.642247294814312,-0.31595497841725473,-0.13923149383437952,-0.006864248661862994,0.04690246159930126,0.0,0.0,0.0,0.0067
135,-2.6449641375812822,-0.11720441345991606,-0.24209386859412982,5.037918656250922,-0.3814664007838382,0.8851095478936035,0.007709417483476587,0.04237179049844358,0.0,0.0,0.0,0.006750000000000001
136,-2.993793063399014,0.14092546817880777,0.1356182964795175,5.362360318447265,-0.27379610507953567,-0.26697884096083346,0.002384035352555322,0.06335532349765777,0.0,0.0,0.0,0.0068000000000000005
137,-2.567967134867731,-0.051639918473648,-0.18380195494679205,5.087246084948959,-0.231852193191728,-0.11854581229317292,0.0021006924945929277,0.044614752250941705,0.0,0.0,0.0,0.00685
138,2.7489812993997766,0.04541557642211219,-0.13546075567644675,4.863982163925467,-0.35438543260788613,-0.4526369808611799,-0.0005491028588642485,0.04169421257521709,0.0,0.0,0.0,0.006900000000000001
139,2.660950159875489,0.019786746455412646,0.08301212719654405,4.95752459268938,0.10827211844427706,-0.35803867493426267,-0.0015748879643810991,0.03778966678831452,0.0,0.0,0.0,0.0069500000000000004
140,3.0988749830090914,0.034713219040472074,-0.0959470569343802,4.281395925160818,0.6602366067032528,-1.0298348856325186,0.00018201830444881722,0.03857327338295162,0.0,0.0,0.0,0.007000000000000001
141,-2.9729548791801705,-0.24726681102584772,0.015662954670698673,5.333033212715908,0.7945773020706297,-0.1080590660820192,0.011135585334779662,0.04889844529969939,0.0,0.0,0.0,0.007049999999999999
142,-3.116004462036457,0.11196388326665403,-0.25655738987980875,5.263887038713146,-1.0893027134027373,0.12807083984095913,0.004250077716670863,0.07106247948993719,0.0,0.0,0.0,0.0070999999999999995
143,-2.658236227913372,-0.0910935059067905,-0.023710395658821486,5.031677954532449,-0.49590001931776084,0.4587976195991118,0.01270831186533347,0.04446078887825001,0.0,0.0,0.0,0.007149999999999999
144,-3.119598224394185,-0.04800465689471176,0.33500658697950025,5.147841984419865,1.1586269540023835,-0.35015275911716864,-0.0011256837487658544,0.05130989618833508,0.0,0.0,0.0,0.0072
145,3.0689221271353384,0.06192518039528064,-0.24428973880840044,5.246921577816995,-0.18854886946515514,0.2883549630800677,-0.005228491115877026,0.06533562205988663,0.0,0.0,0.0,0.0072499999999999995
146,2.493564251312659,-0.027191352322464966,0.19349225694745034,4.982977632806252,0.6529621543181863,-0.3730026169282364,-0.01448329777013551,0.04725016024579491,0.0,0.0,0.0,0.007299999999999999
147,3.104952460418366,0.1325517445026393,0.1719710135229272,5.059457126013232,1.2391882026399834,-0.3659202754846148,-0.011706954692267924,0.05195229538425382,0.0,0.0,0.0,0.00735
148,3.0941364789471324,0.21673213658062498,-0.09069009239943968,5.176627951423446,0.3336080257441448,-0.7937471377690297,0.004410202854543418,0.061964644847591795,0.0,0.0,0.0,0.0073999999999999995
149,-2.5879838557800006,-0.22449928084103715,0.2117963965702926,5.026170993976879,0.08538637813635466,1.063844004341583,0.002796889736502347,0.05322612957200876,0.0,0.0,0.0,0.00745
150,-3.0764101543920765,0.132445762041825,-0.2050983528274108,5.331887573038416,-0.8490563379868581,-0.05476768805920995,-0.01567247797622347,0.03637781667813266,0.0,0.0,0.0,0.0075000000000000015
151,3.1106659562907044,-0.1195585323287745,-0.22295832361546591,4.850325787635686,-0.15142924173645822,-0.26701234955513153,0.023989612443732777,0.03453422794394278,0.0,0.0,0.0,0.007550000000000001
152,2.8858818864980362,0.08867953385995345,0.06625822277747626,5.409117314864182,0.44887889472668835,-0.8418831952960054,0.009514497661257629,0.04505652071783515,0.0,0.0,0.0,0.007600000000000001
153,-2.899126481578189,0.26839134251064783,-0.06013977321334795,5.1596218482156715,-0.10136664236552068,-1.3077484504928938,0.02338212114082588,0.05192373017730225,0.0,0.0,0.0,0.007650000000000001
154,-2.9298015421635424,-0.22565256875733739,-0.31330215013801554,5.180273113084981,-0.8402241676455018,1.1772493236534682,0.009666562126547732,0.029637964550420205,0.0,0.0,0.0,0.007700000000000001
155,2.9524344700455694,-0.05399790413960015,0.1577016062937123,4.606567404342945,-0.3768018239220209,-0.3642819503615589,-0.011144658616133339,0.058222034728752675,0.0,0.0,0.0,0.007750000000000002
156,-2.9843778281525215,-0.05982439181361315,0.15699231936815175,4.786968301041389,-0.18010158355962325,-0.5903185972478382,0.004715242339437994,0.04516461152040106,0.0,0.0,0.0,0.007800000000000001
157,3.03817374928354,0.1951788291453762,0.21226547717472113,4.89829861754052,0.6988800440153389,-0.593677652159196,0.0012462672163354922,0.04592699256994003,0.0,0.0,0.0,0.007850000000000001
158,-2.597430424944057,0.012762061494588741,-0.08531855989551748,4.601604288325188,-1.072282417280969,0.3657186881602296,0.0068986131583161575,0.045978145355729916,0.0,0.0,0.0,0.0079
159,3.0107395999306887,-0.028467115411978692,0.14425270119500033,5.331644952470265,0.5315983966190219,-0.28061701347519374,-0.012364612659680049,0.045663631406454235,0.0,0.0,0.0,0.007950000000000002
160,2.9009017618640014,0.002405150617728657,0.08446857736967285,4.990369290665064,0.46804995246583625,-0.49207098039139174,0.015011581450912132,0.05266493158485024,0.0,0.0,0.0,0.008000000000000002
161,2.994910467287396,0.041588935913993444,0.041756961969146,4.792172568991889,-0.08580652187850019,0.14795590220116578,0.0015022513911675092,0.05161039727320318,0.0,0.0,0.0,0.008050000000000002
162,3.024693977054725,0.1632925597158604,-0.23200793798500613,5.532898457015278,1.031880508667151,-1.4273519589929753,0.006934139169106376,0.05995965143008776,0.0,0.0,0.0,0.008100000000000001
163,-2.8654330841413755,-0.3346097911452271,-0.0014286994248527342,5.353023317911304,0.47011394595363976,0.9945189163918424,0.025615759075462558,0.045473196058604844,0.0,0.0,0.0,0.008150000000000001
164,3.0379923619285156,0.08296475247601065,0.0043035922709946375,4.901374014203578,0.10193279421568072,0.33183509371888753,-0.011947495583840399,0.05940540941817559,0.0,0.0,0.0,0.008200000000000002
165,2.9679741150739463,-0.20544142601194676,0.15835406309249922,4.844542560617848,-0.29040233290276407,0.8504368791558234,-0.008334848172400789,0.036107258452598656,0.0,0.0,0.0,0.008250000000000002
166,-3.0145048841813185,-0.08248542322082959,-0.15638051908184478,4.776419842890322,-0.7613610652388192,0.2852504807794753,0.006638821580539558,0.04409188544410616,0.0,0.0,0.0,0.008300000000000002
167,3.1195484186180513,-0.06040821378438889,-0.309593693803066,4.84466117726853,-1.7966708978958228,-0.8603766496103527,-0.0002914364571080963,0.06436355533725589,0.0,0.0,0.0,0.00835
168,2.053839278345334,0.05643685330179439,-0.13654313158040898,4.989882846811354,-0.5076740864827783,-0.1920002332702189,-0.008519215870835416,0.05340954113734784,0.0,0.0,0.0,0.008400000000000001
169,-2.7249241993812547,0.16722908695108366,-0.22793277507426607,5.266367988408418,-0.6530466433656753,-0.08824657212616471,0.02433988525726163,0.047489043834154816,0.0,0.0,0.0,0.008450000000000001
170,-2.7819629908203023,-0.04491538818657687,-0.29772222513217156,5.063514114709248,-0.9058197426058768,0.28546190299101454,0.0018551266244470044,0.05888969082338924,0.0,0.0,0.0,0.0085
171,2.7691153411410343,0.14043368443937349,-0.10459798622049611,4.663277626998765,-0.15062836317736134,-0.1217014561684873,-0.011902072054237134,0.042552850889410625,0.0,0.0,0.0,0.00855
172,3.021052541236009,-0.13338858850992028,0.07404599484591542,5.22092449616223,0.2826892887373401,0.2839691456925561,0.013562962885074217,0.053010706847377555,0.0,0.0,0.0,0.0086
173,-2.831071665613847,0.11170939703633004,-0.025863988466629798,4.9979315393148,0.12181289079955865,0.6358812532229896,-0.00169633149886247,0.051232234006405745,0.0,0.0,0.0,0.008650000000000001
174,3.131414049503616,0.07291644483200634,0.09775924776721004,4.441868614420584,0.6016167725281801,0.7917646402415977,0.01620275595269952,0.041088726101059764,0.0,0.0,0.0,0.008700000000000001
175,-3.1212841088810688,0.009280503353361192,0.14238371008698375,5.135717206504826,0.3424364216659561,0.30070533551143397,0.00041307143484374515,0.06011115833220916,0.0,0.0,0.0,0.00875
176,-2.5533143624829573,0.01383637184182672,0.21415374274798266,5.057719785246739,-0.018487867603793617,-0.5919392727246195,0.014088753526085858,0.06212713588041127,0.0,0.0,0.0,0.0088
177,3.090690529209954,-0.09782101086350024,-0.32640434454925144,4.934234326763506,-1.394275616766551,-0.2287351245949918,0.004271026226038577,0.04921042675729646,0.0,0.0,0.0,0.00885
178,-3.0594022440865025,-0.011180093996467967,-0.08664872968498291,4.603644587168275,0.07077212101766572,0.3051111995594285,0.003733356831479971,0.05541965151485842,0.0,0.0,0.0,0.008900000000000002
179,3.022952011905248,-0.3418434817348826,0.08642843968389897,5.37199166451875,-0.6086192687901264,0.9675973742110997,0.010778858361826417,0.05435904858401898,0.0,0.0,0.0,0.008950000000000001
180,-2.831257479858233,0.0798440193572191,0.1340999106391091,5.410038023322976,0.46677678473466233,-0.10796761060297436,-0.017956651517103277,0.04770209401810832,0.0,0.0,0.0,0.009000000000000001
181,-2.639510518432569,0.11917316077155547,-0.3515042214911164,4.3126108828190155,-1.3611052164799717,0.03264072364868065,0.00898224790147658,0.06473801752871458,0.0,0.0,0.0,0.00905
182,2.997758937054989,0.212127759199098,0.08630140606448757,5.4309181383570655,1.115485903500144,-0.7578527745539738,0.004712470251558795,0.04605059837116915,0.0,0.0,0.0,0.0091
183,-3.041162851410203,-0.13469303250582101,-0.08867543447140264,5.113104361570638,0.08168433814251119,1.1755714524543794,-0.007866263000116417,0.0358271803934906,0.0,0.0,0.0,0.009150000000000002
184,2.480172339620496,0.026978743784061898,-0.0006551412091695579,4.989335838229471,-0.34303596281562254,0.519046727914097,-0.01696593423976914,0.04347560199917114,0.0,0.0,0.0,0.009200000000000002
185,-2.792327767470533,0.009207905447752147,0.0007759914947999246,4.770646713087136,0.2600623042839701,-0.4427234829713777,0.0038958823231409947,0.06167932388463458,0.0,0.0,0.0,0.009250000000000001
186,-2.8145423507106737,0.0069517930591929894,-0.10599157499126552,4.550960476948994,0.003634658299789345,-0.068002231315933,-0.0018358245805237964,0.04830779057551754,0.0,0.0,0.0,0.009300000000000001
187,2.809781028453373,-0.07911037085240502,-0.09279057234839885,4.797890060545518,-0.8453999938623477,0.23315553038023668,-0.01771003191688099,0.05726767975504508,0.0,0.0,0.0,0.00935
188,-2.751409168358621,-0.3011676283711189,-0.16333940144388936,4.61971012546472,0.04449354883034806,1.25320233480872,0.0031508098716908264,0.04337896443333407,0.0,0.0,0.0,0.009400000000000002
189,3.0285059726824057,0.14708657906587272,0.19722395956469455,4.744881675617691,1.149593700640028,-0.12216292720997168,-0.008061369643479343,0.02531815251889862,0.0,0.0,0.0,0.009450000000000002
190,-2.5125579778122313,0.3098205180698036,-0.02049796256317156,4.64297900174012,-0.30237705049338187,-1.5177046894757678,0.004050159141265593,0.0485890082567925,0.0,0.0,0.0,0.009500000000000001
191,3.112124560998501,-0.18892974356404843,-0.1170075991724282,4.627805313301874,-0.8681610377634101,0.1861387123268664,-0.01243312600540705,0.031190002587883046,0.0,0.0,0.0,0.009550000000000001
192,3.0237887821145977,0.0776613071328242,-0.067707074116573,4.899607554851354,-1.0582547755542238,-0.48083388724976756,-0.007603750873987705,0.04918082351351989,0.0,0.0,0.0,0.009600000000000001
193,3.042510707527921,0.05451825655219171,0.11458392666452866,4.5511726083847615,-0.4821248424864481,0.6698919330275681,-0.011265160516454585,0.04999203965272884,0.0,0.0,0.0,0.00965
194,2.8971981220782825,0.13311569430316145,0.07423761444193866,5.222021503162769,0.23247876443735468,0.11401596187220553,0.00981011795717879,0.05220241284121355,0.0,0.0,0.0,0.0097
195,-2.9180229869195253,0.18677841442196486,0.2966923138986064,4.748630125783464,1.2407044625354615,-2.1002145620427943,-0.005835526607166054,0.05096318368687681,0.0,0.0,0.0,0.00975
196,2.7931016692615307,-0.10687377131861263,-0.1856671092533274,4.676582611486922,-0.12485280932166598,-0.09266757542435489,0.0044950670905845955,0.04583476286003133,0.0,0.0,0.0,0.0098
197,-2.9252607765521996,0.009784482342293734,-0.29540203825097183,4.854082980014219,-0.9339853131350507,0.48180484414126845,0.009073869325319879,0.04552836349439045,0.0,0.0,0.0,0.009850000000000001
198,2.784225444258691,-0.11509447903756591,0.059786807553020356,4.694277730269652,-0.3668241265335341,0.7887357941250674,-0.012651093576914504,0.04994405069924604,0.0,0.0,0.0,0.0099
199,2.6608687705596608,0.03454761860718865,0.0650363770332468,4.617605878471384,0.8191876916286872,-0.5197133511562106,-0.005344273756446349,0.05551640846421709,0.0,0.0,0.0,0.00995
200,-2.8233286196996596,-0.3557129214836292,0.08836756960461745,4.501935858253178,0.9233420414150557,0.7487742408186605,-0.005932685438045643,0.05991267915943024,0.0,0.0,0.0,0.01
201,-2.6874940915307426,0.31672785385038654,-0.3352478107173674,5.087472481280641,-0.9458675182304229,-0.8895459714835523,0.0019385536785957282,0.05350353366437775,0.0,0.0,0.0,0.010050000000000002
202,-2.942284220835946,-0.3327007119740836,-0.18498722688610916,4.570951277554492,0.6124360696189665,1.1604207628682999,0.01044003971155651,0.032977117406308,0.0,0.0,0.0,0.010100000000000001
203,2.700153899774222,-0.09699149691632955,-0.016107561098575335,4.7930559548475555,-0.23549508397238533,0.3704444895031546,-0.010849759700067048,0.046556979524341284,0.0,0.0,0.0,0.010150000000000003
204,2.9703239370771097,0.0065864986469100495,-0.052027127093642184,5.070466089816314,-0.5612729047173954,-0.464994057869893,0.0032261344854701834,0.044312675049452396,0.0,0.0,0.0,0.0102
205,-3.0185165392523525,-0.043158747987902236,-0.508595691394927,4.594019521461982,0.18707501813011485,1.3779117306529671,-0.009012440434779286,0.057197320708046555,0.0,0.0,0.0,0.010249999999999999
206,3.0477304640965013,0.05694351102857212,0.10169181276952913,5.04522297776355,-0.2553426754158565,-0.347796735420343,-0.027999628044144166,0.04914988683777652,0.0,0.0,0.0,0.0103
207,-2.414066574652368,-0.030791641592483997,0.030343265426714103,4.065837043638903,0.5756604731919501,-0.359632243998368,0.004934902716816153,0.05885320027602581,0.0,0.0,0.0,0.01035
208,-3.012732203593529,-0.01957432581875399,-0.19522726125559095,5.437540683689963,-0.36370298426310865,0.4973022839046001,-0.00402569417327675,0.05987964612615456,0.0,0.0,0.0,0.010400000000000001
209,3.1095941020117777,-0.0020046501079849033,-0.2272591545476499,4.636717277834173,0.5957857457152473,-0.9497894993507379,-0.013799749723845062,0.04729755752590479,0.0,0.0,0.0,0.01045
210,-3.044517485876096,-0.08962562361829879,0.3438609563591858,5.093214288782654,1.0329595510999838,-0.3935184993655034,-0.008325513013658145,0.05479039185418927,0.0,0.0,0.0,0.0105
211,-2.74282145317742,0.059653488075232,-0.0036443180662892524,4.455440934515201,-0.5886889849895208,-0.4604380077856499,-0.006217602392214267,0.06286291358512013,0.0,0.0,0.0,0.01055
212,3.0875525526807395,0.15070424501426485,0.13060106413360179,4.70392201025722,0.7472339317656151,-0.24108609225626965,-0.0011147851635805867,0.044895106988234214,0.0,0.0,0.0,0.010600000000000002
213,-3.11467934141209,0.013422579135828828,-0.14454826111967334,5.4100935864369655,0.13934088612400175,-0.06620488229466287,-0.012254396150598085,0.05912091864978735,0.0,0.0,0.0,0.01065
214,-2.928036353246996,0.012026464198206691,-0.08354020077649695,4.558653950378412,0.28940349290490447,-0.07148345508930193,0.008644072590163403,0.03027222447107144,0.0,0.0,0.0,0.010700000000000001
215,3.036174386314605,0.0961740552146233,0.13594560885055348,5.489986447068094,0.580865429391521,-0.3834732612860505,0.006636943586665759,0.06075745775934042,0.0,0.0,0.0,0.01075
216,2.775766400548666,0.14340328370787023,0.06127987295469722,5.05278736466252,0.06327261865088339,0.04023956966842385,-0.00672725841258341,0.04884558179680944,0.0,0.0,0.0,0.0108
217,-2.9930578716439786,0.2949970052318285,0.05489513425938512,4.718448058063216,-0.6101264970693977,-0.39426093626636227,-0.016738695578341848,0.05657479454585276,0.0,0.0,0.0,0.01085
218,-3.083569135511359,-0.16186186537252362,-0.002351910098091481,5.098232257689229,0.32510279911040335,-0.6522285910181489,-0.005052959310660801,0.05069189903150055,0.0,0.0,0.0,0.010900000000000002
219,-3.0816970401608277,0.24551998577635398,-0.030575904193686058,4.739564962937364,-0.5623681674420995,-1.05232744615454,-0.0033671759124752542,0.05183112280181925,0.0,0.0,0.0,0.01095
220,-3.1071365495214787,0.1550161373490597,0.24506903543782582,5.284553604746812,0.8675798581724796,0.38263382480828495,0.007471020378383045,0.03313044285240691,0.0,0.0,0.0,0.011000000000000001
221,-3.0495838700201716,0.022511745586520204,0.11792886571318666,5.2656746035916315,1.060279037987073,-0.8044611060386939,-0.004174874391870782,0.04805525306076627,0.0,0.0,0.0,0.01105
222,-3.002997873861784,-0.019684874789462434,0.014380077334214805,4.712331476802354,0.36266909347494863,0.2887161337123223,-0.0028386694787262273,0.04892824699510082,0.0,0.0,0.0,0.011100000000000002
223,3.0818974304223663,0.00705415475504796,-0.05875201890522324,5.033398782477194,-1.0332615609543996,-0.04595459010640169,-0.011674208113783016,0.039131178595502136,0.0,0.0,0.0,0.01115
224,3.087939876160181,-0.004072957538416052,-0.10992598928136764,4.564091715501978,0.021883969918211177,0.15153409060150463,-0.017590059012618037,0.054220929177816124,0.0,0.0,0.0,0.011200000000000002
225,2.8563362526609923,0.17407577098770083,0.01185708929456598,5.171340558826496,-0.03377421387633833,-0.3081054932587939,0.005656315345025899,0.049019632632138314,0.0,0.0,0.0,0.01125
226,-3.0643093057766926,-0.2346192945191483,0.08966065824880373,4.973837079253847,0.15802472869073536,0.2642973839270166,-0.009470581116382827,0.04134466287654238,0.0,0.0,0.0,0.011300000000000001
227,2.8703545616206765,0.22847266996388263,-0.028471120098564645,4.792270380683011,0.45546099403199436,-0.38825123740455525,-0.004791837119862441,0.052319011968339386,0.0,0.0,0.0,0.01135
228,-2.622471795667869,-0.05664962876256072,0.20359704160534184,5.204234446450873,0.9998379468099998,-0.16300979560208223,0.002784430628048306,0.042585610641689156,0.0,0.0,0.0,0.011400000000000002
229,2.9358289560796775,0.05422080757412096,-0.044155760632690784,5.204145310165116,0.1897505839193699,-0.11831570353726553,-0.007440094968017073,0.04619993361552406,0.0,0.0,0.0,0.01145
230,2.640443516394217,0.011097238603612919,0.20153517257417647,4.7684409958151,0.6631301632329838,0.5043402411414317,-0.01153013204633751,0.06324378088203424,0.0,0.0,0.0,0.011500000000000002
231,-2.2953948900187426,-0.06740280089174475,-0.004118490521357588,4.456305849444112,0.25678332977180945,-0.3600794192561511,0.0030224457682367393,0.0435549862276417,0.0,0.0,0.0,0.011550000000000001
232,3.0466351497208564,0.03985317104008599,-0.04993162394244144,5.111435327849804,-0.4006240022769603,-0.4001121927154792,-0.002482092599714211,0.04379204981651904,0.0,0.0,0.0,0.0116
233,2.6979401237317933,-0.1013897891213084,-0.179554118277071,4.8919932419487635,-0.8129362425795712,-0.7552760122500299,0.003523220738392792,0.06355665691085502,0.0,0.0,0.0,0.01165
234,-2.8718498883935024,0.08574777794663282,-0.06587251094849539,4.89688210046815,0.20851120824087058,-0.4920081636885797,-0.0005376603558238739,0.05217284261782884,0.0,0.0,0.0,0.011699999999999999
235,-3.1133654899960685,-0.11546971085662185,0.12044008731782958,5.043193041691295,0.5317099307145662,-1.0041136399531894,-0.006680660163659239,0.0546723579164068,0.0,0.0,0.0,0.01175
236,2.9781179950771715,0.1607969319828773,0.3205882575090723,5.496017655219799,1.4530409081727567,0.3152587737158259,0.00714354130944208,0.057682942243992744,0.0,0.0,0.0,0.0118
237,2.7339184720328586,0.10770560295639343,0.07209256081939479,4.968220653808575,0.21032818940407796,-0.25783012047082465,-0.015036918380821163,0.03890130047292368,0.0,0.0,0.0,0.011850000000000001
238,-2.5074399490233277,0.007989844602104184,-0.31172198669504075,4.444162387186165,-0.7000202233028842,0.22621986031097618,0.002409324276156058,0.04221265390794348,0.0,0.0,0.0,0.011899999999999999
239,2.563271884293058,0.152423053460745,0.06093245477091747,4.915289306263496,0.9521711222276362,-0.28607551429783135,-0.004832722345511495,0.04566827549361644,0.0,0.0,0.0,0.01195
240,-2.905539909857004,-0.29606179302153046,-0.11084245061189417,5.0222334128012776,0.16327498626706483,0.19840278821350166,-0.0012327907483826524,0.04307526362200581,0.0,0.0,0.0,0.012
241,2.688183582884463,0.24589511706592188,0.024470647522833462,4.789805377805039,0.361260424372092,-0.6522959682961327,0.015162014290929603,0.04157570542318279,0.0,0.0,0.0,0.012050000000000002
242,2.6765369862311443,0.09225263642283706,0.28762035598417085,4.90161196550361,0.9660622982650601,-0.3886957725320713,0.007379885566311391,0.04942402863084668,0.0,0.0,0.0,0.0121
243,2.9446690203892465,0.2853449132185383,0.14806019167421436,5.149874572290638,1.0161064422702508,-1.1780958845179255,0.007901881384855404,0.042481609072008195,0.0,0.0,0.0,0.012150000000000001
244,-3.0093441493434736,-0.3265574104306862,0.06516880741006481,4.968455582339788,0.42151561899773,0.7200193303284856,0.009919200762340472,0.07840103051865273,0.0,0.0,0.0,0.012199999999999999
245,-3.1334935059225972,0.06624806095440214,-0.004345022944377363,4.624736580190086,-0.1626463416971518,-1.0939773507501873,-0.000653430413901392,0.03669001630136447,0.0,0.0,0.0,0.01225
246,-2.3072176163356994,0.006087539605406442,-0.17178855442675842,5.259459925738732,-1.0854136597509063,0.38004261465741374,-0.010563465636276468,0.044924777140648714,0.0,0.0,0.0,0.0123
247,-3.0948435409916812,0.28770432421548636,0.30013795912925545,5.000365854667059,-0.8384699295711178,-1.1163146053721422,0.01775129272166576,0.0349581239705561,0.0,0.0,0.0,0.012350000000000002
248,-2.981379488203637,-0.07361937691187313,0.20460966550761964,4.923513451745555,0.3172508510112361,-0.05058155662081981,0.0008754016282276435,0.06685227183002036,0.0,0.0,0.0,0.0124
249,2.865912716946647,-0.18813905922751006,0.23730441239607222,4.849790329795421,-0.6673075466783749,0.7907300485556993,0.011397188227963496,0.06581925452554295,0.0,0.0,0.0,0.012450000000000001
250,3.0686271220090147,0.38517836131157474,-0.009588951661791587,4.908347896767056,0.7465442676467574,-0.3189567217678041,-0.026559279802990738,0.05713289905910009,0.0,0.0,0.0,0.0125
251,-2.6053725925687927,-0.0004261592429155433,0.007849195117442863,4.999281727367047,-0.28366057168266395,-0.14807416256468056,0.0011355323050875497,0.049864200632027025,0.0,0.0,0.0,0.012550000000000002
252,2.730053573907989,0.1009647508799032,-0.06249813964255553,4.667300970764241,-0.2499566805573769,0.07988071493653731,-0.006690126706293569,0.04503797043314273,0.0,0.0,0.0,0.0126
253,-2.8242127258482714,-0.19133751178664127,-0.017093988030129452,5.038037680441274,0.9603462028514551,0.7273516993869622,-0.001990125077440561,0.06569767791266955,0.0,0.0,0.0,0.012650000000000003
254,3.080207734124546,0.06454619415815424,-0.02071728631375923,5.072757268132966,0.0720149880186547,-0.24755963502843983,-0.016643603856343364,0.03559109879865649,0.0,0.0,0.0,0.0127
255,-2.704769004717532,0.037061561234255976,-0.021835796868675428,4.904099013134142,0.018194624658240094,-0.07059022835270798,-0.00017755118828282994,0.04925491937371407,0.0,0.0,0.0,0.012750000000000003
256,-3.0151945348724105,-0.012243059014964714,0.13081002855398896,5.08464654614098,0.5888380927870469,-0.7450103807734552,0.007150062011939529,0.06340499797722149,0.0,0.0,0.0,0.0128
257,2.5743701700090913,-0.04810306216126094,-0.39568244114262036,5.601069047247488,-1.2968314315233587,-0.8003999385955837,0.0039228507034102765,0.030385160865917346,0.0,0.0,0.0,0.01285
258,3.1114615163552592,0.14994119700928238,-0.04232199602169738,5.4109128301868745,0.7481690742502536,-0.0885191587408688,0.0009843693250320138,0.04234545970154618,0.0,0.0,0.0,0.0129
259,-2.847141338196108,0.07689127437657088,-0.37610391224343304,4.856944060392126,-1.1157711807652282,1.0218271633121438,-0.008186977046579962,0.05356763338054684,0.0,0.0,0.0,0.01295
260,2.765693231477381,0.11414689745717424,-0.24966235446286045,4.699480312648303,-0.8899511406685862,-1.3521750433000548,-0.013051452418671438,0.04905628069968245,0.0,0.0,0.0,0.013000000000000001
261,2.5924313134864616,0.05048040561811971,0.11014702604252848,4.240118668432808,-0.19266070579428035,-0.417875788113485,-0.010663856375102539,0.051809008340051976,0.0,0.0,0.0,0.01305
262,-3.012343867015414,0.0973195234879569,0.0458361354052375,5.148711161065503,0.11568784813895833,-0.35511728460061465,0.01718957614508624,0.0526276705094138,0.0,0.0,0.0,0.0131
263,3.065310354986648,0.014806315603272356,0.04494067846801743,4.987597963773834,-0.05927440659216744,-0.11797905214442195,0.014029683695331217,0.05160638464770223,0.0,0.0,0.0,0.01315
264,2.9501771871922666,-0.12287255917643435,-0.20213921330732063,4.967620241087179,-0.4420893402956485,-0.24673437370678136,-0.004232995201605243,0.04603022204151865,0.0,0.0,0.0,0.0132
265,-3.029861524618877,0.01757515490362155,-0.12302618987891037,4.805207111779952,-0.6706679404780633,-0.8322852979456679,0.011033188704544407,0.050865590481253393,0.0,0.0,0.0,0.013250000000000001
266,3.0500314580465644,-0.195827969474963,-0.09039452383409484,5.140297346468822,-0.8932986187503125,0.21010627391131953,0.007520590561351525,0.05524617932641472,0.0,0.0,0.0,0.013300000000000001
267,-2.5923963567623476,0.07627583028031455,-0.12499643770433298,4.988939735963589,-0.4383948632838739,0.7794791280018021,0.008944996532573694,0.04363370789164363,0.0,0.0,0.0,0.01335
268,2.8723729122053747,-0.08918338602534673,-0.40473217379332393,4.548491775871546,-1.7889175468526848,-1.7062341897923328,0.007410625040925174,0.06904872312289381,0.0,0.0,0.0,0.0134
269,-3.023309117955608,0.33960758855879014,0.0941442677454561,5.078855572451357,0.01278143154567779,-0.502759729666657,-0.0018695613068682613,0.06255925753175262,0.0,0.0,0.0,0.01345
270,-3.1045182497004986,0.41240759928612086,0.037362550013657035,4.949598365126487,-1.3042140541519576,-0.8144238808814102,0.007299529618917637,0.055891251534553744,0.0,0.0,0.0,0.013500000000000002
271,-3.074659578704161,0.20091478557006162,0.03368011814206036,5.207741690228912,0.018482162651967504,0.019495117015240315,0.008297699444104951,0.054490922949934614,0.0,0.0,0.0,0.013550000000000001
272,-2.856619339109078,-0.05872275058675114,-0.19718536976861234,4.9953436779449545,-0.16251970598543097,0.8853912288490451,0.00456693312003482,0.05102610306869682,0.0,0.0,0.0,0.013600000000000001
273,3.0910346315419015,0.06491705920613101,-0.07878765577992232,5.032174023643942,0.5449529733179017,-0.1121447136546671,-0.0003449748129880181,0.04897175540936398,0.0,0.0,0.0,0.01365
274,-2.559410059395401,-0.04474273263315868,-0.06292537534529491,4.597053156612036,0.20606598470191748,0.07458085222488545,0.00274010903189819,0.04937395444194469,0.0,0.0,0.0,0.0137
275,3.006243121147734,-0.16089755069247624,0.030453989823357543,5.062290445694751,-0.5559564665931521,0.5910036160260318,0.0061881042784290505,0.04965955595420659,0.0,0.0,0.0,0.013750000000000002
276,-3.1232582438261285,-0.15635925404148487,-0.20080690736134635,4.353840264128738,0.3879170344214208,1.366730619331065,0.0028359397443463385,0.028444417119309968,0.0,0.0,0.0,0.013800000000000002
277,-3.0865626029847437,0.04595582165117858,-0.10090624098282569,5.569576134241131,0.41658930396510296,0.842647767554374,0.006980258417254993,0.05181660878274896,0.0,0.0,0.0,0.013850000000000001
278,-3.055385010044905,0.1030366871796227,-0.19197561275870148,4.722838035374452,-1.3560622498016401,-0.41683297141564557,-0.010631445585354485,0.0710580030667902,0.0,0.0,0.0,0.013900000000000001
279,-2.865570065710208,0.08397384493191908,0.0956637020833464,5.2159953707541815,-0.05819603875199253,-0.2815814414668294,-0.0031014479145832128,0.049109339098733,0.0,0.0,0.0,0.01395
280,2.673239289860345,0.19624409270727905,0.08608191547990636,4.6083270647476695,0.3979329971215736,0.14232096504085262,-0.0050329629445679735,0.04884095656163229,0.0,0.0,0.0,0.014000000000000002
281,-2.998233060608311,0.16350148449036467,-0.28726020964523397,5.5719322047299835,-0.7930367440108217,-0.49373868194977444,0.003029789752666691,0.033371337886426086,0.0,0.0,0.0,0.014050000000000002
282,3.093129754364948,-0.19388380565908495,0.045214944038345445,4.7426692002438395,0.48497793535317596,1.3629298254025406,0.008444831147392785,0.06088296188016016,0.0,0.0,0.0,0.014099999999999998
283,-2.886554678051515,-0.251136809195017,-0.14905303939324308,4.9214769062118835,0.21491970401307353,1.1211419160516076,0.010660639507990895,0.05029113776704395,0.0,0.0,0.0,0.014150000000000001
284,-3.0521289846754898,0.031163017015405484,-0.08854774125818267,4.1923356643177785,0.25453930854564333,0.5855207159825674,0.01600167430733126,0.047195860064384525,0.0,0.0,0.0,0.014199999999999999
285,2.982207258185988,-0.10441225786208866,-0.2849896822133809,5.14415147866255,-1.3063335999400247,-1.1290154732915099,0.00844360635395053,0.03768625159018831,0.0,0.0,0.0,0.014250000000000002
286,-3.0592028322041473,0.0805940819922589,0.12762088094279112,5.316514632999772,0.12290085745888712,-0.20962270174078482,-0.024855605955029995,0.055014098247469986,0.0,0.0,0.0,0.014299999999999998
287,-2.6278592041529985,0.03466042407092328,0.15138412261440262,4.954566097320659,1.9154685252338046,-0.698927408734269,0.0034015669382596067,0.03611012939777038,0.0,0.0,0.0,0.014350000000000002
288,2.999329788495192,-0.1671728357295149,-0.17199044070484792,5.268460659430327,-0.6134293549445468,-0.3716387084878341,0.0018447954263253689,0.03980157651881149,0.0,0.0,0.0,0.0144
289,-2.823237647816212,-0.2801623229758946,-0.09600818182554338,4.914492577420954,0.40114728840021185,1.3569021485158248,-0.014988096405180371,0.045481110532307856,0.0,0.0,0.0,0.014450000000000001
290,-3.081351029613058,-0.24589305340449635,-0.04366932399581931,5.608626542999489,1.0843390470491485,0.7874755964639416,-0.009248368402615623,0.04839109205859802,0.0,0.0,0.0,0.014499999999999999
291,-3.025793327499499,0.012119235516373153,-0.18737510668027815,4.538942004901518,-0.2200715480085224,0.6593702453018924,0.00019478039491685278,0.04765038592333247,0.0,0.0,0.0,0.014550000000000002
292,3.020612144755481,0.07693147834725317,0.14428785206753886,4.942014312868972,0.643759092369337,0.3661476529642974,0.012533203922153827,0.04511610035534431,0.0,0.0,0.0,0.014599999999999998
293,-2.86090864660292,-0.1303019742262818,0.20666901010748318,5.272362414948562,1.668438979528099,-0.050796478686461755,0.006169745890408688,0.05027133146287703,0.0,0.0,0.0,0.014650000000000002
294,-2.9925156010080127,-0.032204737265235976,-0.006582414950366571,5.288329378976771,-0.4532835216426403,0.2747933744275131,0.0006914501332434579,0.023611932681377266,0.0,0.0,0.0,0.0147
295,-2.8839895451217825,0.03239862189549833,-0.0004515820979404872,5.432568683852708,-0.16127227284061058,0.03836654870746848,-0.017980067472034053,0.05299363544068725,0.0,0.0,0.0,0.014750000000000003
296,3.0817217277939104,-0.14198440279319757,0.1613873905015256,4.629328174445299,0.012078250772198373,0.6257973486823296,-0.010591639210325196,0.04854451086122065,0.0,0.0,0.0,0.014799999999999999
297,-2.604117777309318,-0.04846015722154241,0.019061448343610975,4.757523141132088,-0.6975978471792119,-0.2213157920832915,-0.012277265332199888,0.06603345061703343,0.0,0.0,0.0,0.014850000000000002
298,-2.9187507958168433,-0.23079650452718972,-0.09166242798760535,5.170997756055868,0.23852831794717033,0.43418989868432545,-0.005224230578795303,0.058223167784969866,0.0,0.0,0.0,0.0149
299,3.0452780585717325,-0.07200127561390954,-0.11744537437847719,4.658838896064252,-0.6281686360695078,-0.48129266434120416,0.009095101975375225,0.039568414096181365,0.0,0.0,0.0,0.014950000000000001
300,2.987000089218971,-0.0014284207592390327,-0.03053024396070015,5.003634946852955,-0.8836062615961404,0.4862917452998473,0.006696441892405575,0.04579670950246336,0.0,0.0,0.0,0.015000000000000003
301,2.815546213428872,0.08704497744773061,-0.14916131940956345,5.093788827014093,-0.0068130233738416535,-0.14474123083120866,-0.004819501132556716,0.048630824062200186,0.0,0.0,0.0,0.015050000000000003
302,-2.9598273884485593,0.06697107417682678,0.16982276192626583,4.363923150397478,0.5304772368554542,-0.7333316576934178,-0.009409278102423275,0.05766419933866282,0.0,0.0,0.0,0.015100000000000002
303,2.4429409504325186,-0.09289308609586552,-0.08859107097629566,5.186662816263182,-0.22297879130225745,0.4890218279985906,-0.004388809871582088,0.05574287527800117,0.0,0.0,0.0,0.015150000000000002
304,-2.801926283297437,-0.054278020797678614,-0.010355353726231791,4.856440998992197,-0.24107687857178303,0.1543758752945817,-0.00936106526704202,0.05267483788399804,0.0,0.0,0.0,0.015200000000000002
305,-2.9231479246683483,-0.024803308190382765,0.00637556619015352,4.612215584378618,-0.15441037166067875,0.3080596642117676,0.010168747908059439,0.06277034612109846,0.0,0.0,0.0,0.015250000000000003
306,2.9454063985531556,0.09757191472181047,0.02443032842711224,4.880451208446734,-0.14015424948541705,-0.42027652389813525,-0.014424263876014427,0.044924033025572574,0.0,0.0,0.0,0.015300000000000003
307,-3.137650967746295,0.10816832628273926,-0.01949305776826263,5.347960150693961,-0.4609866889450466,-1.110860857074281,-0.008021802786906777,0.04167427931520237,0.0,0.0,0.0,0.015350000000000003
308,-3.127184220010913,0.20644152171868851,-0.0370405111228564,5.385183607874579,0.2705560905085974,-0.6107397520782085,-0.01063746687988063,0.055467073269945655,0.0,0.0,0.0,0.015400000000000002
309,-2.662802963773232,0.005918456223067578,-0.1549018486492776,4.840938032994902,-0.790811163099998,0.19032504930368616,-0.00451392004644268,0.04825628982999301,0.0,0.0,0.0,0.01545
310,2.1915765265464837,0.05829884937845564,-0.1743855610398281,5.6210369382724314,-0.683344577258697,-0.14814736033742457,-0.002392671771457287,0.05369534177087798,0.0,0.0,0.0,0.015500000000000003
311,-2.8206342378426656,0.15227066970818773,0.02668179960150805,4.974935197057654,-0.3127280026022422,-0.4141836243088041,0.0017723124431668889,0.03386822280104368,0.0,0.0,0.0,0.01555
312,-2.6072904374988073,0.027169895816410192,0.1128808356988534,4.254686242862892,-1.0314220016253985,0.576348198530161,0.011722894191753607,0.03279803036341622,0.0,0.0,0.0,0.015600000000000003
313,3.1226922584937653,0.14287591724068593,0.1642289628832219,5.3866087368857425,-0.11061815117890396,-0.19143206337935237,-0.020369429996499492,0.06122750887588942,0.0,0.0,0.0,0.01565
314,3.0182047998667487,-0.07164691512909786,-0.11191139443011622,5.574224839346993,0.21374938645142247,0.28312630347297235,2.8809508336730214e-05,0.05207287988637387,0.0,0.0,0.0,0.015700000000000002
315,3.1283344708744303,0.27348601158439867,-0.04724671805858062,4.753689657557486,0.19420196267745393,-1.4290820621412341,-0.01897934355111953,0.06098098597987071,0.0,0.0,0.0,0.01575
316,2.958291284673601,-0.05511297652722252,-0.06230868273103767,5.065629414399322,-0.7969282984347174,0.22057195773068278,0.008238806916492276,0.04834479343346322,0.0,0.0,0.0,0.0158
317,2.949359408392785,0.027393373443403757,-0.05398966964381595,4.712469545296433,-0.24287826070958296,0.2691091894867011,-0.011440889687609658,0.05059103198314223,0.0,0.0,0.0,0.01585
318,2.8805806984627114,0.09110235388815843,-0.09875176967485104,4.793161561278939,0.04212156443050824,-0.09250586307381563,-0.01163338899620873,0.07369087923288181,0.0,0.0,0.0,0.015900000000000004
319,-2.913971914857956,0.18365880595817421,0.003401748991895576,4.469459346489535,-0.7112489092229327,-1.0235390448792185,0.004873514278934821,0.05285540589141368,0.0,0.0,0.0,0.01595
320,-2.8589156895988803,-0.07392909638119201,-0.1611842142084865,4.557338418235208,-0.10611424847368217,0.937406886921787,-0.004112415347839848,0.06680887054655107,0.0,0.0,0.0,0.016000000000000004
321,-2.953692844006901,-0.38761586467278186,-0.327837684382763,4.482280122096421,-0.4910115421170933,0.6228354748116343,-0.0066328075994533334,0.048919890460748745,0.0,0.0,0.0,0.016050000000000002
322,-2.776350740980711,0.18483437146855203,0.11274096384560824,5.382782896333333,-0.05975846020943332,-0.061427355675444384,0.0036979810464344808,0.05997286976643401,0.0,0.0,0.0,0.016100000000000003
323,-3.1234683999088584,-0.1542249810531622,-0.20445922618774903,4.7739748688176045,-0.5241838068662021,0.11153640222990721,0.00922810938027659,0.046309446671176605,0.0,0.0,0.0,0.01615
324,2.763251707699393,-0.18136335573439666,-0.07985902249326411,4.5965774524752945,-1.2246892930801225,0.14196714908471164,0.0013248540664220244,0.0458700308307837,0.0,0.0,0.0,0.016200000000000003
325,2.7596718068211024,0.08769598016704092,-0.07201513940215688,5.093784595764265,-0.007381441936816335,0.25875742990620754,0.003241714664360635,0.053077419742936935,0.0,0.0,0.0,0.01625
326,2.434099617306247,-0.06164176123225036,-0.0032591890941495952,5.179037560545654,0.053376405629877485,-0.07826022492721937,0.008870675404286776,0.05331731463692951,0.0,0.0,0.0,0.016300000000000002
327,-2.439305755047355,-0.20631270333683513,0.25545887448916577,5.3596393325092,0.27609223676081496,0.09321284534994378,-0.007686995408094104,0.05703696737984276,0.0,0.0,0.0,0.01635
328,-3.0627370072584617,-0.04081802667728347,0.08953276615502757,4.882943205814294,0.6091674592379137,-0.44872141699407253,-0.002132265607078321,0.06293902624447578,0.0,0.0,0.0,0.016400000000000005
329,-3.0302181514363387,-0.17394252024084922,-0.02723102849380823,4.749939909365955,-0.6851379359857821,1.0734806628970386,-0.004933427406199762,0.036733266976559535,0.0,0.0,0.0,0.01645
330,-3.0922547597086236,-0.0716291205928102,0.15967201915373705,4.921827749786194,0.7653429345079743,-0.020511176029588074,-0.01775230287069847,0.047172750815169626,0.0,0.0,0.0,0.016500000000000004
331,2.645667462864937,0.012297396622914696,0.17083441749406392,5.3896945913642575,0.4731154679264172,-0.2894000593328941,0.005205665490099799,0.06142275713591061,0.0,0.0,0.0,0.016550000000000002
332,-3.0945361420615605,0.05844938773139424,0.09346510593416786,4.820994283619035,0.06431852949036154,0.09303044815495988,0.004422199737970891,0.04625954563249353,0.0,0.0,0.0,0.016600000000000004
333,3.0651672267848653,-0.16064232920047958,0.4267704390551429,4.975545103580101,0.6970861873866756,1.4329144779058325,0.012546980848586756,0.06935015761506491,0.0,0.0,0.0,0.01665
334,-3.090191346065618,0.06400609463192211,-0.012095066607989613,4.440415689422379,0.2974910892391822,-0.41589840137657674,0.004041230950673367,0.06802479406979633,0.0,0.0,0.0,0.0167
335,-2.689532357324631,0.04145037512481833,0.18015746540055294,4.691844001816293,0.5093395193357522,-0.9426738242196886,0.006066107615655268,0.05660038781534692,0.0,0.0,0.0,0.01675
336,-2.968634214579412,-0.043475639867847145,0.09585928288891774,5.162348169297504,0.2575963700347561,-0.8902995822305627,-0.0021479816902593507,0.05555126339479838,0.0,0.0,0.0,0.016800000000000002
337,3.022401951299183,0.048773039369812074,0.21998531055507242,4.9744793865596,1.1306579573074682,0.9178018891006163,-0.004567268679113072,0.05224090812993641,0.0,0.0,0.0,0.01685
338,-2.9862915756904846,0.1387779789667195,-0.011677528730985279,4.797189303536907,0.28045471183464993,0.33189537140263925,-0.0024867415748626087,0.05609470693396093,0.0,0.0,0.0,0.016900000000000002
339,3.0296946027682057,-0.16505315585474015,-0.04083844387814308,4.592748881247587,-1.559722149949514,-0.5017595576680017,0.014242986520749023,0.06810998602161741,0.0,0.0,0.0,0.01695
340,3.030012634513222,-0.22264972475378075,-0.1028733280517677,5.321811430363207,-0.8061607148250117,1.1777885868717295,0.003227591010761501,0.049995612449269,0.0,0.0,0.0,0.017
341,2.992771129045093,-0.16524795489212685,-0.23659319968091175,5.165658917511769,-0.9854829841987347,0.6580573651897037,-0.007575148049023516,0.057944472660109124,0.0,0.0,0.0,0.017050000000000003
342,3.0360619276953345,0.06140608966927008,0.15213760962414233,4.894123427088635,1.4262061518730458,-0.5159661633433223,0.008554574890052947,0.05478342031720923,0.0,0.0,0.0,0.0171
343,-2.586004203902539,-0.15729469570987403,0.06774679396902504,4.653724917576002,0.30716807011001473,0.7080393565175037,-0.011667212489553859,0.03314846773737784,0.0,0.0,0.0,0.017150000000000002
344,2.8644654572916526,0.05201449691561897,0.308388663461782,5.300125161153516,0.16468356099993253,0.3155671257808221,0.008582915201352568,0.04898398947464436,0.0,0.0,0.0,0.0172
345,2.8007328376053526,0.1501086889633171,0.03351642852937814,4.682651955497801,-0.3102808123107868,-1.416738882700461,-0.025175868052161536,0.03955502555010663,0.0,0.0,0.0,0.01725
346,2.8304289401841576,-0.2693331083431594,-0.11030861084100402,4.317998494133292,-1.1842391010577278,0.6814059471170258,-0.007398085791577408,0.04877079486959554,0.0,0.0,0.0,0.017300000000000003
347,-2.8279507631228964,-0.01761767079767498,0.10991194617776857,5.221109925295515,0.7931411846408318,-0.34784447237943283,-0.005245316180628641,0.045992938340980116,0.0,0.0,0.0,0.01735
348,2.8895176800513664,0.00917301249055986,-0.005991251484736017,5.975404562290295,-0.004693996322953364,-0.796301788045787,8.483553959695318e-05,0.041896504157045406,0.0,0.0,0.0,0.017400000000000002
349,-2.815200222111068,-0.06877376702637521,-0.15784460493639013,5.099735432321709,-0.11263501359171418,0.8040189262942229,-0.011555362143854775,0.038041652852757096,0.0,0.0,0.0,0.01745
350,2.959963949831797,0.04922778982416557,0.2001613365606986,5.122110298542206,0.6828522600394313,0.16706688962128086,0.022412829767656177,0.05162995844256771,0.0,0.0,0.0,0.0175
351,2.9157749469817045,-0.22898071126458475,0.08535000338464879,5.494837515250788,-0.08638737332486113,0.49753782416687475,0.011174075880921182,0.05043444452312659,0.0,0.0,0.0,0.017550000000000003
352,2.76762596987451,0.040538520203867535,-0.20075788650667503,5.325589308261736,-0.05045120442234152,-0.13270250861612948,0.01657114663956781,0.05858561050280538,0.0,0.0,0.0,0.0176
353,-2.8953006514150297,0.055852601898211146,0.2453926245598336,4.632353529359658,0.6702341828102997,-0.7696488625977156,0.00556730241853559,0.048677527365845,0.0,0.0,0.0,0.017650000000000002
354,-3.1177212711053937,0.07546498172687592,0.3651983593054238,4.385826140823942,0.2511615261898328,-0.6602552352976065,0.005907768639453992,0.03487331312246939,0.0,0.0,0.0,0.0177
355,-2.932833266162157,-0.07137955500101947,0.30776846916688055,4.694964397243804,1.5085841195194614,0.0678641329731614,0.003550453965328375,0.048460713045700106,0.0,0.0,0.0,0.017750000000000002
356,-3.0128334950987656,0.06766092540399049,-0.13755547668053947,5.107956438134717,-1.220254236148639,0.28105532921815224,-0.012021803628133505,0.04609343174112654,0.0,0.0,0.0,0.017800000000000003
357,2.9812825972069112,-0.3015338218023835,0.03209110950589089,5.068599444342236,-0.73850009042301,1.5073200496174544,0.002219280214098448,0.04400032927725467,0.0,0.0,0.0,0.01785
358,-2.890631897153194,0.04049099087427637,-0.0069772969476630696,4.996048377413545,-0.3800171955728289,-0.0010039672143443007,-0.009301874175365004,0.057297724372726136,0.0,0.0,0.0,0.017900000000000003
359,3.0593225379718287,-0.057935700265313035,-0.22442346048348835,4.324117212810274,-0.9995297951063478,0.3597562048034919,-0.009473028094379218,0.050310985090147885,0.0,0.0,0.0,0.01795
360,-2.6196058026333113,-0.07529105315445166,0.09034589600376841,4.484091383670485,-0.057246474553259846,0.47147529389830856,-0.01097544986683788,0.048384278090545026,0.0,0.0,0.0,0.018000000000000002
361,2.9045835264849007,0.09014634444273376,-0.22384131609629387,5.182619927224184,-0.293271268075318,-0.15861151857288122,-0.01741361541111965,0.05285107609322881,0.0,0.0,0.0,0.01805
362,2.6650873489147004,0.007680788892987769,0.21271804738512237,5.026420700022261,0.029309376950561683,0.4609837440228943,7.57249606692348e-05,0.048538131590213494,0.0,0.0,0.0,0.0181
363,3.1310436891460256,-0.028003259274777155,0.04790341387532783,5.263124715326236,-0.30311691747048375,0.26852309276741554,-0.007118486396608543,0.055675768263130955,0.0,0.0,0.0,0.01815
364,3.0066983828769014,-0.0774938557672498,0.0388250690238474,4.721912666432059,-0.24725029086800537,0.018963381517779238,-0.018574093424525037,0.06116640674837028,0.0,0.0,0.0,0.0182
365,-3.0033286747392482,-0.19953890253720827,0.1983725564900984,4.685401770772663,0.9471411933668158,-0.561174597264238,-0.0014715782849717297,0.05559649685181308,0.0,0.0,0.0,0.01825
366,-2.862719776428922,0.02100547717754304,-0.029142538084536505,5.2982949960940315,-0.3229639843317262,0.13602442978311652,-0.0013257328459738513,0.0408875719765243,0.0,0.0,0.0,0.018300000000000004
367,-2.9234475621569223,0.2754138074030123,-0.2037475929690832,4.851402637557936,0.02028679155869409,0.3110374448946034,-0.0083506721139531,0.05407661517625699,0.0,0.0,0.0,0.018349999999999998
368,-3.058421043754442,-0.01884719004296016,-0.04709453349332836,5.278807151988156,-0.3037788641950284,0.6200994817109947,-0.001131931101794425,0.039769189565333166,0.0,0.0,0.0,0.018400000000000003
369,3.0943283707162914,0.19862566435085904,-0.22957196851922065,5.216946206781708,-0.695731255438358,-0.7378517399637186,-0.014955714050889227,0.036889074513562665,0.0,0.0,0.0,0.01845
370,2.8335899192757257,0.21075387964340744,0.16390690643310651,4.978482638940338,1.4227315842408874,-0.03363870858204554,0.0021938184464979074,0.05420776213222041,0.0,0.0,0.0,0.018500000000000003
371,-2.8769545098272364,0.04765993018675971,0.08235586894242142,5.086423167715379,-0.7323543611902645,-0.2461389760607699,-0.023158867059824572,0.035233743536161946,0.0,0.0,0.0,0.01855
372,2.791981780921689,-0.13325474851219402,0.36941552086964746,4.978313737838526,0.4453217625495278,1.0150158888137693,-0.011376488776382596,0.043885377386542065,0.0,0.0,0.0,0.018600000000000002
373,2.9277313046441606,0.019131639463827805,0.10626343835212443,5.216286932940328,0.6194557977480595,0.24028766091179912,0.011068930845813393,0.04736981356386453,0.0,0.0,0.0,0.01865
374,-2.87894186634187,0.13907613699086493,0.14023176814360427,5.192959805822045,1.0626926196708264,-0.5919121019477407,0.00515936126390662,0.04997809602509405,0.0,0.0,0.0,0.0187
375,-2.988814983386535,-0.06678666607098004,0.10742304977896029,5.311666030396138,0.23499027926637198,0.35620080545361266,0.0020369149811979197,0.03504413970043692,0.0,0.0,0.0,0.01875
376,2.879589135880752,-0.06279463214515046,-0.03092987088667204,5.173675157299545,-0.3053861312445843,-0.10117586962934128,-0.004225914722401341,0.04103455725060721,0.0,0.0,0.0,0.018800000000000004
377,-2.774374870896731,-0.11118122093604307,-0.22756292610554135,4.8754930044905604,0.16759227264507615,1.0767834922777832,-0.024814743574581393,0.05097273362740845,0.0,0.0,0.0,0.01885
378,-2.95025638102689,0.051449334069723796,-0.05149966487937293,5.396685863535206,0.3984032830489351,0.45337407935166013,0.0016727463910894476,0.04190406884640595,0.0,0.0,0.0,0.018900000000000004
379,3.036724114392556,-0.11540150292646899,-0.0883620954632839,5.330553483396034,-1.3466063475523096,0.6270424837549324,0.02358098170073296,0.06231699723717663,0.0,0.0,0.0,0.01895
380,2.884690230681424,0.2173971458846803,0.07603030342890182,5.013386686273403,0.16819327902871048,-0.6462163406181293,0.0025097714116470928,0.06162924551541066,0.0,0.0,0.0,0.019000000000000003
381,3.107930370338375,-0.2871714668067978,0.0842434006639738,4.801306152683296,-0.5232332350099625,1.3953716878006706,-0.02884830051324894,0.03032246293149856,0.0,0.0,0.0,0.01905
382,-2.6674788250382986,-0.08579860300681802,0.04717989039543727,4.611714251737357,-0.14497816866690916,-0.34288540008372803,-0.013048679987991245,0.043076641190283926,0.0,0.0,0.0,0.019100000000000002
383,-2.571308035047492,0.13546150276048427,-0.12508878842929227,5.068391432789969,0.05075293338827455,0.4968655738197742,-0.006171985504650498,0.05412410538949656,0.0,0.0,0.0,0.01915
384,-2.8541012093184506,-0.2891965589367757,0.13014637920478392,5.158512229602448,0.878033283144275,-0.24859745360858343,-0.004719517272545194,0.059951037769028104,0.0,0.0,0.0,0.019200000000000002
385,2.916489977517664,-0.06210470502059877,-0.046399261617374954,5.8869599771243735,-0.43432878310470696,0.15825361922157072,0.017877267324536712,0.03865506695477512,0.0,0.0,0.0,0.01925
386,-2.8054621915954425,-0.17043832702919703,-0.12400994960876327,4.591065769763845,-0.18162001912016312,0.6137060279741178,-0.009242985263395304,0.048242564948462074,0.0,0.0,0.0,0.0193
387,2.87838256136637,0.15296407201052478,-0.10798357860571303,4.67922049597127,0.32788643428780495,-0.04117398079998147,-0.004418397706476092,0.023451237634531916,0.0,0.0,0.0,0.01935
388,2.904510660842847,0.21737898046750256,0.3125971706927157,4.858068576594346,1.164114403629773,-0.5496924191699218,-0.00206207303841988,0.059763128960356036,0.0,0.0,0.0,0.0194
389,-2.7870161666032827,0.18556498231404014,-0.12499826141157845,5.750614390204119,-0.28223084429707407,-1.1617275580467843,0.002438493443959613,0.050395507333518406,0.0,0.0,0.0,0.019450000000000002
390,-2.7850641462785286,0.21783097194156617,-0.19236045744903063,5.096992013767494,-0.9139456803791384,-0.1308395524046181,-0.004876799048057984,0.047538824455341744,0.0,0.0,0.0,0.0195
391,-2.3180037970372265,0.0676620310307103,0.21603683011652383,4.851302528216672,0.20877006376446083,0.15078215492175556,-0.002433846527743323,0.04685766910880205,0.0,0.0,0.0,0.01955
392,-2.9915180225522393,0.13818169559492485,0.2455841619207342,5.265906129932303,0.6400009887204452,-0.6910419184886465,0.0009241317072481536,0.06310984139748417,0.0,0.0,0.0,0.0196
393,-3.0525050881589673,0.04871707986331149,0.10031123458962196,4.920979543294192,-0.283715430034406,0.4210839463081639,0.0013299154456321584,0.05313055161551915,0.0,0.0,0.0,0.01965
394,-2.655600238355542,0.08105959251630306,-0.03360164453942901,5.335144333779861,0.1943830035841705,0.11897235070852905,-0.02335275024794332,0.0453569753289825,0.0,0.0,0.0,0.019700000000000002
395,3.0483515994293966,0.025792596245838087,-0.08673184079296896,4.8995998346297895,-1.0874959357349137,-0.20681619506494386,-0.010641751132375709,0.050700888951593664,0.0,0.0,0.0,0.01975
396,-2.604043897608442,-0.021686356764036924,-0.00025679124124121535,4.948747432573316,-0.10682434239583287,-0.1982051501313808,-0.000765236343602886,0.06697335427438386,0.0,0.0,0.0,0.0198
397,-2.8971373636060886,-0.20318446046729716,0.08100580792379151,4.818977798605309,0.7144540668429875,-0.4040791749388351,0.0037164805254957193,0.04114925556152481,0.0,0.0,0.0,0.01985
398,-2.684352732761788,0.17754499256056583,-0.026234125654869874,5.541898182922423,-0.635870291814457,-1.1779980930511682,0.010218886203301402,0.055966177244624604,0.0,0.0,0.0,0.0199
399,3.0149666056650877,-0.19708377284747916,-0.03156647125832405,5.70439148945449,-0.1751875559570234,0.3941971930307042,-0.0072572371221334845,0.04429414234850511,0.0,0.0,0.0,0.019950000000000002
400,-2.9687638559351828,0.0734815157575471,-0.2624051488387155,5.056999208272561,-1.1546307116789638,0.7132448768658319,0.013353848348419723,0.05501831433620441,0.0,0.0,0.0,0.02
401,-2.8711770029759975,0.2155710974229771,-0.12131502308509239,4.685138116836335,-0.01411145898585863,-0.8897480851336288,-0.006352287103872355,0.059923364365975285,0.0,0.0,0.0,0.020050000000000002
402,2.811627692907164,0.06871684567203497,0.16316393301770213,5.032481434701117,0.41630035336862387,-0.26232402484988326,-0.012874055342278881,0.056470342959649325,0.0,0.0,0.0,0.020100000000000003
403,3.0900385308445246,0.18851033306333437,0.021260568022330853,4.963714368477666,0.6082325415652505,1.013345098394173,-0.0008747125607557948,0.041130082439963564,0.0,0.0,0.0,0.02015
404,3.094696838317742,-0.4205014318845627,-0.032380962058087895,4.592394074567696,-1.1784350386603348,1.5147933134047207,-0.0015551250320930275,0.03843501579883678,0.0,0.0,0.0,0.020200000000000003
405,-3.0636255943969757,-0.15260904896261931,-0.27698544966295463,5.005764295017466,-0.49156939530344357,0.9692601410754007,0.01237664769982916,0.04964092241926604,0.0,0.0,0.0,0.02025
406,3.0194312594664097,0.1632459605024223,-0.0560029731985467,5.0199830878466765,0.10725962842970849,-0.34977966897996865,-0.021817446400788733,0.035871949874376106,0.0,0.0,0.0,0.020300000000000006
407,2.9362594306919036,0.023296449924735767,0.03810767260646195,4.720269649502815,-0.38646587904501933,0.25772224963026225,0.0011321928373462554,0.057159523287832026,0.0,0.0,0.0,0.02035
408,2.7016206923113555,0.07414971863642754,-0.052298923937487356,5.412270113182753,0.09440987983621071,-0.2802614223209456,0.008437874615246605,0.04426150847510937,0.0,0.0,0.0,0.0204
409,-3.013638612971671,0.040111991097632346,-0.025780729305594424,4.720548459339448,-0.6472778215058026,0.30522450094846854,0.001040706558916063,0.051615414472774075,0.0,0.0,0.0,0.020450000000000003
410,-2.5966620024365947,-0.011247303558282004,-0.1003917569655313,4.585813130607608,-0.007534604111062354,0.23060594166926923,0.009674663935547927,0.050458217909102314,0.0,0.0,0.0,0.020499999999999997
411,-2.622459581829061,0.1263877330183848,-0.03250311939287019,5.3558834631303665,0.2838530533018589,-0.17605128350817972,0.017862690350567135,0.06068140441006664,0.0,0.0,0.0,0.020550000000000002
412,-3.116604754805584,-0.2966989430190291,-0.106570596743917,4.594809454505591,-0.37513682552342165,0.9982327465357207,0.0087107558706001,0.0440379754916453,0.0,0.0,0.0,0.0206
413,-2.9924102604412206,0.02896735524349094,0.10142275478216294,4.894767304981274,0.389564282516311,-1.0076076701469074,0.02938673622760214,0.0505273262535236,0.0,0.0,0.0,0.02065
414,3.130132792487206,0.16763239397913896,-0.1599221672404971,5.808694975777556,-0.4007944627133577,-0.6838254324192327,0.023416997888342367,0.06298602852273893,0.0,0.0,0.0,0.0207
415,-2.683662237278304,0.21889611290235297,0.10486340517928006,4.862130611710381,-0.23613147364169906,-0.4371845103517695,-0.009021596418321003,0.0542489844040531,0.0,0.0,0.0,0.02075
416,-3.1166176139471298,0.16686274837768572,-0.07298491426163342,4.60735674681892,-0.2331990772066289,0.04985891982634533,0.0021705535192828524,0.04446328658571802,0.0,0.0,0.0,0.020800000000000003
417,-2.9925926115384827,-0.11307086823087807,-0.0799921355983203,5.432954939705192,-0.18229232051300814,0.5562901871387116,-0.0007929734491654344,0.04038097675528235,0.0,0.0,0.0,0.02085
418,-3.1351223586614445,0.04563811257602848,0.07158474730107606,5.203045025168719,0.07095404784671644,-0.544509562237035,0.00524281697089609,0.052451206695528246,0.0,0.0,0.0,0.0209
419,2.905608654138964,-0.2547920090553248,-0.07144611187727223,4.711693066143517,-0.8987673047021669,-0.5500362451865581,0.014491829356839096,0.0445277622261849,0.0,0.0,0.0,0.020950000000000003
420,2.9871456877916986,-0.021138724373380113,-0.0689047782624769,4.645882407440449,-0.36866171625326083,0.04087441075720663,-0.0013957000118002552,0.04104551799865197,0.0,0.0,0.0,0.021
421,3.0709742291526974,0.2062165417291327,-0.13252327948367687,5.540207584557495,-0.21067943975515802,-0.4398253184746637,-0.0027283362207920275,0.042801249880410536,0.0,0.0,0.0,0.021050000000000003
422,-2.6142438109011295,0.1626439805736441,-0.04199586561070365,5.628924697674175,-0.5843024936794772,-1.0135262211493767,-0.006877184314181142,0.051849430009215984,0.0,0.0,0.0,0.0211
423,3.060363905436856,0.04493301656812831,-0.026615365424169087,4.545949000128218,-1.1100756306269854,-0.7683582023326679,-0.018167555778597543,0.04606845321127965,0.0,0.0,0.0,0.021150000000000002
424,2.683137291553734,-0.13470917901274623,0.09518994091564702,5.487136565372437,-0.010731625701075165,0.8381243707191938,0.007128721362836373,0.03599435152420778,0.0,0.0,0.0,0.021200000000000004
425,-3.0448601088365743,0.07072158602922632,-0.24434830135177243,4.586921143718628,-0.4665878482539219,-0.7375261672315832,0.014130346952838057,0.051425341346807145,0.0,0.0,0.0,0.02125
426,3.024203565753959,0.10590937526254254,0.014042150075866344,4.819941376384328,-0.7898123179335259,-0.6524975667851556,0.004366768298999792,0.046545958015920375,0.0,0.0,0.0,0.0213
427,-2.7383181323937,0.07157736807750295,0.13957600118720684,4.826463975187614,0.36603190500989385,-1.016058976375341,0.004123824634133527,0.05206186058820338,0.0,0.0,0.0,0.02135
428,2.1783797262059785,-0.12740081475488027,0.2049214292863173,4.443900116637288,0.4628536292953196,1.3471253938094072,-0.00681168249688837,0.034058270221929934,0.0,0.0,0.0,0.021400000000000002
429,2.7497056479021826,0.1591910681076234,-0.04188978940628081,5.222999587141654,0.16043714877046117,0.17917382943673799,-0.0037925770130096187,0.054723055621351664,0.0,0.0,0.0,0.021450000000000004
430,3.0797009139784968,0.1827026133896025,0.021134103944444694,4.916546371301462,0.123021925501788,-0.5784150371581289,-0.008822807204224282,0.04684417522868583,0.0,0.0,0.0,0.0215
431,2.9394508515885436,0.05419567990870912,-0.1755938584773012,4.785839994738467,-0.41070821513618927,-0.2824921319178294,0.004681726177709214,0.03839489107878037,0.0,0.0,0.0,0.021550000000000003
432,-3.11361533131863,0.1287095433908736,0.07480591842915724,4.8726506149162105,0.8391528078225918,-0.9313156051051108,-0.0036341124982444337,0.030605465908764035,0.0,0.0,0.0,0.0216
433,3.0812518322686557,-0.0373722352880069,-0.21302051130643224,4.671010317292652,-0.8864686911349131,-0.5173688655399478,-0.001396313561710835,0.042780340564960724,0.0,0.0,0.0,0.021650000000000003
434,2.9144515651752774,0.02689951334067051,0.2872776629488804,4.980774428740596,0.4059112175275138,0.6738274436932887,0.00013645945336736515,0.06696828636152878,0.0,0.0,0.0,0.0217
435,3.0355974783060704,-0.09201071289036399,-0.08582764128530829,4.762034677443668,-1.0127051312013602,0.15746095270790506,-0.01633788001066544,0.04980719422683759,0.0,0.0,0.0,0.021750000000000002
436,-3.0433283383538092,-0.14796233251029006,-0.01643970001333569,5.015503073013541,0.5021125378921579,0.042337130045968785,-0.0018317683486156295,0.04398210813276791,0.0,0.0,0.0,0.021800000000000003
437,-2.68901861179701,0.0219768084509242,0.22679673999647768,4.8804675335985,1.152528782371367,-0.5893400155989812,0.004437668051565034,0.04737844884907783,0.0,0.0,0.0,0.02185
438,-2.981049212062072,-0.0360119416999312,-0.24483150325459585,5.9557404308072766,-0.7513675387246891,0.7387479196256197,-0.0074481495139071836,0.05132121825637034,0.0,0.0,0.0,0.0219
439,-2.6202572086932507,0.008849412579180085,-0.03586033444980313,5.4670222685805,-0.1779634896693389,-0.3217329753735209,-0.010382077568394148,0.06093078762526227,0.0,0.0,0.0,0.02195
440,-3.094534449635116,0.013663183532300945,0.03993725239577088,4.902807775536023,-0.3385074581478076,0.4937415901593296,-0.015209675596470252,0.051839869186368605,0.0,0.0,0.0,0.022000000000000002
441,-2.9556072848378308,-0.1462097314703457,-0.06618442973872368,5.014004543135582,-0.09604547859921714,0.7141792637278221,-0.013491483259596485,0.049604091481968524,0.0,0.0,0.0,0.022050000000000004
442,-2.8407265025167003,0.13637182731914882,-0.024387843134390085,5.007187828460116,-1.024107550441057,0.12668062891518272,-0.011653948079869931,0.04056102709999042,0.0,0.0,0.0,0.0221
443,-2.4302319885828982,-0.18674828359457596,0.02938936256797537,4.660117164874711,0.644369864071738,0.7606227293438339,0.02235047676732741,0.06077826528532035,0.0,0.0,0.0,0.02215
444,-3.1185309318800294,-0.13648557729300873,-0.1052377773709308,4.873234208849403,0.5369423255905481,0.4192624908052938,-0.015778155329628077,0.0557362691427567,0.0,0.0,0.0,0.022200000000000004
445,-3.017866747304957,-0.09321404276753067,0.02266861746603154,4.603279410812519,0.4497439448264654,0.07784279717342985,-0.00761727987459067,0.02981193341560437,0.0,0.0,0.0,0.022250000000000002
446,2.9443099617261375,-0.024990861446769458,0.08335233263852829,5.124782213146384,0.3943268428357352,0.022097004169931343,0.00829789080015755,0.05347106011091317,0.0,0.0,0.0,0.0223
447,-2.471546565135611,-0.13345836194730099,-0.09333372072640202,5.550227300183322,-0.46744477040018306,0.6073149223711403,-0.008000337520508112,0.0504020533009295,0.0,0.0,0.0,0.022350000000000002
448,2.439816253757854,0.04713548147987741,0.04481927825606691,4.830806199107812,-0.006267768315816373,-0.5163477788870499,-0.010543712899209412,0.04919599680535243,0.0,0.0,0.0,0.022400000000000003
449,-2.7819703196608603,-0.038007297333340545,-0.1796881817922629,4.567715630003498,-0.7422341758185735,0.02624810202370756,-0.00814837928651439,0.05808410414039851,0.0,0.0,0.0,0.022450000000000005
450,2.9822623110621405,-0.2545694318099795,-0.15994167217383148,5.5554960476048585,-0.5866660584796491,0.25904615636039385,-0.01656628556930712,0.058517232428717716,0.0,0.0,0.0,0.0225
451,-2.565414301587284,0.22319311086629015,-0.10863534187615795,5.380782543856858,-0.4357401920626741,-0.8723305447669099,0.011064123436642289,0.05559676306890522,0.0,0.0,0.0,0.02255
452,3.096599341453535,-0.17683927201970936,-0.032595516190764603,5.187457709991202,-1.2324449173600334,0.018643461572611875,0.010258742207146131,0.049062106141289204,0.0,0.0,0.0,0.022600000000000002
453,-3.063075179048116,-0.13974409498278456,0.046694140905364785,4.7202072493078475,0.7650318890509409,0.3367835988325386,0.0020844726136472185,0.04833518675034683,0.0,0.0,0.0,0.022650000000000003
454,-3.0283518248342034,-0.11111082694990862,-0.06935496203023833,4.897621172011832,0.8090758102831181,0.37803647924934275,0.005027870128490929,0.05807540070350137,0.0,0.0,0.0,0.0227
455,-2.948418474680526,0.07018073192447175,-0.10344346333739324,4.918988868102027,-0.9688525729933334,0.33569256906285705,-0.019396496058063803,0.028310572312553132,0.0,0.0,0.0,0.02275
456,-3.020507710847138,-0.10759572226217116,-0.13115530036819303,4.810316885741678,0.2560491135286316,0.22387811677879793,0.00017711559230974535,0.05172582145449202,0.0,0.0,0.0,0.022800000000000004
457,3.007307215779837,0.01930180764293958,0.08794553512312617,4.673723667586156,-0.20513469286274225,-0.019790183657621196,0.003391623400499112,0.04300393997843286,0.0,0.0,0.0,0.022850000000000002
458,2.8057537479196033,0.07744070635901819,0.0871506703322752,4.742952813910825,-0.49163537143770325,-0.10721754055827443,-0.005478492993255216,0.050571490031107835,0.0,0.0,0.0,0.0229
459,3.0939322196621792,0.24792442795852127,0.10777990385990731,4.986329838116386,0.548245339110952,-0.7667456065213841,5.1092992009907356e-05,0.05280870094350258,0.0,0.0,0.0,0.02295
460,-3.005503865705884,-0.1972518365592502,0.10963524357692364,5.152129769872393,1.2966435276481123,0.9359495377375046,-0.009804107809026106,0.03476524199100099,0.0,0.0,0.0,0.023000000000000003
461,2.877991511642332,-0.05760083699105839,-0.09821916377302659,5.3978427437034995,-0.30344782845005636,0.1940271910201788,0.0019402110591100973,0.06426722203363747,0.0,0.0,0.0,0.023050000000000005
462,-3.1220273576194124,-0.01732967006655664,-0.19508225773078217,4.768800010728213,-0.9110532248581371,0.4983336888275607,-0.01282637303710418,0.046119049028035874,0.0,0.0,0.0,0.023100000000000002
463,-2.9378759816871387,-0.1850598171926273,0.22176153838740925,5.088304302002979,0.49667971738736993,-0.025873713039136992,-0.0005669188782611561,0.04988044193859009,0.0,0.0,0.0,0.02315
464,2.86261981745494,0.19835015517690913,-0.06495851530182828,4.939269183411848,-0.1897781655712773,-0.8917929015950483,0.006007040228087096,0.05864620312237628,0.0,0.0,0.0,0.0232
465,-3.1192327565373374,0.06669950536251397,-0.09457627576743155,5.105704212717087,-0.3080154436058727,-0.7173020025503174,0.009454843803880024,0.0407022468750784,0.0,0.0,0.0,0.023250000000000003
466,2.659860300091765,0.01617611742741936,-0.10205743698597303,4.981399850789657,-0.5836149180793899,0.38473585422288803,-0.005206865238227877,0.042600703639072285,0.0,0.0,0.0,0.0233
467,-3.1207047109834236,0.07771806075781451,0.009269472459834005,4.96851578108165,0.19473265397575584,-1.6652735652808595,-0.015925259605902985,0.06902587152749023,0.0,0.0,0.0,0.023350000000000003
468,-2.8267333935926886,-0.03764418592073094,-0.07763980519014613,5.031308281913952,0.3659722594423088,-0.5447260842447758,0.00038026669757248305,0.06312103103593868,0.0,0.0,0.0,0.023399999999999997
469,2.6239608854958574,-0.10113275674181434,0.085201744135956,5.274675176631231,0.05383687824157485,0.6525166797334789,-0.015465497000301465,0.03441126665457035,0.0,0.0,0.0,0.023450000000000006
470,-2.976888761419018,0.012973485727971109,-0.06693629117826064,4.823052334716608,0.28961947857748005,0.26670374124427226,0.0029013618176242408,0.06843381031509195,0.0,0.0,0.0,0.0235
471,2.8916587864269068,-0.0009974732187966735,-0.010310285976425687,4.76115854708508,-0.28448296179167454,0.15548225905793892,-0.0018990931087322369,0.05483145613605332,0.0,0.0,0.0,0.02355
472,2.9664869636547246,0.009182864257108065,0.1060758944689851,4.553985716016387,-0.18627691131372578,0.1409747027285317,-0.03005612310074867,0.04613000937105476,0.0,0.0,0.0,0.0236
473,-2.8246515445100724,-0.08395382338790462,0.031500217588832743,4.736301239046112,0.11535945504141522,0.16583593642912983,-0.011869387947061282,0.05547616060058942,0.0,0.0,0.0,0.023650000000000004
474,2.817792288178007,0.043518003018787756,0.1009009372040929,5.218684915626686,0.16262691173034163,0.15502952166820383,-0.004508245438382451,0.06913884190647182,0.0,0.0,0.0,0.023700000000000002
475,3.0448877378237276,0.05736789562491253,0.02894614190457345,5.1791043721807,-0.38997225368888677,-0.3640186307584513,0.010915028274156791,0.029199428701236894,0.0,0.0,0.0,0.02375
476,3.1126957106345534,-0.08823479733645817,0.013733642652762274,5.1665495791265,-0.1827489723001307,0.620744637385203,-0.007565772423661123,0.059615050215990534,0.0,0.0,0.0,0.023799999999999998
477,-3.0886542674961075,0.0013830299217710363,0.2937481679076408,5.302541408926265,0.036404909069641,-0.6758272185402862,-6.855191270875105e-05,0.04142271775440198,0.0,0.0,0.0,0.023850000000000003
478,-2.6440301007006553,-0.017259518654178897,-0.1616288257899762,4.774167528995571,-0.053535738721567916,0.3032355387579909,-0.0011757836654420718,0.04492169697006732,0.0,0.0,0.0,0.0239
479,-2.9408179112957478,0.011117163312487795,-0.13140490197857443,5.062186248276976,-0.2946045622236313,0.29773791361864965,-0.00046852395442461333,0.06124883351843227,0.0,0.0,0.0,0.023950000000000003
480,2.9684199199172228,0.28345216605909807,0.02481572081371924,5.1994501424000745,-0.09786796979392148,-0.13561678812585198,-0.005212417423888227,0.04598569324780949,0.0,0.0,0.0,0.024
481,2.841400011010855,-0.04632144928386144,-0.025976243945551987,5.247234332919769,-1.169262172674687,0.009680113550524921,0.0014103556739759287,0.05032746784516282,0.0,0.0,0.0,0.024050000000000005
482,2.968310756818761,0.20344118486919088,0.06568905405226898,5.210831801015587,0.5238778280192259,-0.6189429719406251,0.022690822406059383,0.04959115893875489,0.0,0.0,0.0,0.024100000000000003
483,-3.046348425755516,0.148776687784885,0.20918588435212482,5.471786234795513,0.5835312699720155,-1.4709242101372224,-0.01376821559191865,0.059250425882518096,0.0,0.0,0.0,0.02415
484,-2.856390778645565,-0.055450238398427276,-0.07701821511868921,3.9403560475928536,0.8436344309925919,0.007082267895244122,0.007997521960148784,0.04015448984852352,0.0,0.0,0.0,0.0242
485,-3.115929379496815,0.038377225348514246,-0.2610320737606806,5.375778970155861,-0.426465327974888,0.2879159527013738,-0.007500319684919678,0.048466467117485715,0.0,0.0,0.0,0.024250000000000004
486,-3.1108515145847058,0.010706363090393821,0.06461448489112626,5.142075164039795,-0.4472867672721679,0.06294889870569752,0.0047025121818718455,0.056038959921213126,0.0,0.0,0.0,0.024300000000000002
487,2.8126967934519334,0.13643782094169304,0.05545973431786015,4.992316409720918,0.1722610033054423,0.08071768088418779,0.002006715202676577,0.0254834323328095,0.0,0.0,0.0,0.024350000000000004
488,2.7232213480197216,0.1184669298598131,0.2240596451278664,4.819373253734907,0.46589378712576845,1.2692252465950107,-0.0127461753751742,0.050191635928258364,0.0,0.0,0.0,0.024399999999999998
489,-2.618201174799328,-0.34301354121902566,-0.12942195734538972,5.223901714224566,-0.05744214657273816,1.579214360650472,-0.008351419546095331,0.041080406231995825,0.0,0.0,0.0,0.02445
490,-2.941978594656995,0.166139970491243,-0.10801768648628852,5.11711736315124,-0.5122410919674599,-0.19397689728741774,-0.0008689724528485447,0.055233887512770606,0.0,0.0,0.0,0.0245
491,-2.934786918167916,-0.06012299849638443,-0.054366125147376425,4.429250194501727,-0.008638318116708205,0.5021894374048173,0.0028808831317036444,0.045947301087758005,0.0,0.0,0.0,0.024550000000000002
492,-3.0108248292489166,0.03120529369693154,-0.30543180191052854,4.961925355117767,-1.4553787967932608,0.9280576283649342,-0.0007549721590213152,0.048258443866242784,0.0,0.0,0.0,0.0246
493,-2.7601514910869254,-0.04374504876278487,-0.026197371689982724,4.842576077644222,0.31210398273628365,0.24357134153861043,0.004892688387796146,0.0540076099124556,0.0,0.0,0.0,0.02465
494,2.987677005221968,-0.014669225406756971,0.05958739999058492,5.254051031124651,0.8265638714924181,-0.023337690818031533,0.006291797971810708,0.062212974399660954,0.0,0.0,0.0,0.024700000000000003
495,-3.0338445777127,0.012420333612893124,0.06620227237521788,4.958381893936027,-0.1749714021352166,0.28059060851466305,-0.012904024599442777,0.058573898766422966,0.0,0.0,0.0,0.02475
496,2.8879900823542037,0.050868123310880864,0.17554198269554921,4.963692295137867,0.4937749947095869,0.8905622041736594,-0.012414600459299744,0.045693905084922604,0.0,0.0,0.0,0.0248
497,2.9727943938778068,0.06598371084965307,-0.11917598863296748,4.882780046766359,-0.854107549567424,-0.13053415753775854,-0.002371816271327918,0.03587118145602641,0.0,0.0,0.0,0.02485
498,-2.6762462531081623,0.14818977932256272,-0.011853127526467368,5.25989796919997,0.026800645297261116,-0.4557732347513173,0.007457232164855701,0.05660232426312989,0.0,0.0,0.0,0.024900000000000002
499,2.6836257612661636,-0.14057921868211007,-0.12387559658726083,5.088197037478234,-0.25264093770991514,0.3796535843438329,-0.014669159397763087,0.05955980157143436,0.0,0.0,0.0,0.024950000000000003
500,3.03070916839067,0.02766081977484093,-0.3572642808633494,5.012963221784117,-1.3510825156645747,-0.40645646407043723,0.008148446570440922,0.04739855091030836,0.0,0.0,0.0,0.025
501,2.876043913760268,-0.06641499393129494,-0.04638342409171888,4.891024465146934,-0.5382684308017609,0.029420279187825887,-0.007048008590816692,0.04949869544964937,0.0,0.0,0.0,0.02505
502,3.067987138387241,0.26912811010070326,-0.24702926519904214,4.973575046022388,-0.04793431288253225,-1.7592617403311075,-0.00800118978784305,0.03978591902926598,0.0,0.0,0.0,0.025100000000000004
503,-2.950893949223489,0.03388864622927292,0.2579937016766162,5.476862512492465,1.0876306613652498,-0.5151831633717991,0.011438537295733187,0.05014026918756632,0.0,0.0,0.0,0.02515
504,2.7120021447767857,0.02132374210331111,0.13499477022412754,5.003449573186586,-0.028866923318555282,-0.32510533768322986,-0.005389762824635661,0.052869629584233566,0.0,0.0,0.0,0.0252
505,2.961286513769729,0.07131627316938095,0.03436940864275428,5.027479587770589,-0.199028410463456,-0.06079552648695316,-0.014798691846164402,0.05927722313786156,0.0,0.0,0.0,0.02525
506,-3.105435800169838,-0.1657128600199877,0.1990832669539541,5.190976043717577,0.3388157599487329,0.6705593279089248,-0.022604650991231053,0.060506168956480554,0.0,0.0,0.0,0.025300000000000007
507,-2.896179898012871,0.07226082925874007,0.06228519553433221,4.976032678140593,-0.3248417375376782,0.44032506870827925,-0.011231000041325193,0.039058098733223454,0.0,0.0,0.0,0.02535
508,-2.737233411466556,-0.03521374092064524,0.011569374924364736,5.168599337774054,0.33781105700099456,0.3184882065104226,0.010238552276039408,0.05661770255698633,0.0,0.0,0.0,0.0254
509,-2.9476346785707617,0.22985711088187288,0.1365942475398272,4.988012076705484,-0.18227395750451464,-0.6919176743988413,0.014372775385911222,0.061952848440420094,0.0,0.0,0.0,0.02545
510,3.050590963565022,0.1155979802118485,0.023736290977937415,5.160788862776679,-0.6661386025600522,-0.26062885825740495,0.0061034443439449484,0.06094107793080157,0.0,0.0,0.0,0.025500000000000005
511,3.03648055317065,0.03983172373283649,-0.1213438020422861,4.732848791421177,-1.5236080970552461,-0.6005836420706595,-0.008988865151477034,0.06039712660925597,0.0,0.0,0.0,0.02555
512,2.9774742825053857,0.1168963866984558,-0.14764962433671736,5.301109519531161,-0.6982576352732976,-0.8372222378449374,-0.01259773175061368,0.05407961666281537,0.0,0.0,0.0,0.0256
513,3.120226493100152,-0.06683021720439654,0.15019489132924377,4.83501286659553,0.8490722553565384,0.19592833375736857,0.006814324677148082,0.06875853574715268,0.0,0.0,0.0,0.02565
514,-3.1244444502317767,-0.026101735834060964,0.04066981452489696,5.13713608976925,0.2954275838793659,-0.22471213689358846,-0.005315389311335258,0.05760533268184068,0.0,0.0,0.0,0.0257
515,2.8281084433428543,0.07357462331044005,0.29497926457629625,4.7625770175470405,1.6705602001707627,0.6388286353864969,0.009643986425208565,0.056582580682744604,0.0,0.0,0.0,0.025750000000000002
516,-2.9287766359412513,0.005350298119818263,0.08509189739604917,4.811307849773244,0.8272099789125432,-0.5204028394343619,-0.017815940858296568,0.040484523082039765,0.0,0.0,0.0,0.0258
517,-2.667166304267392,0.10939263286802706,0.17065814799319606,4.6438556225236916,0.8454166824684274,-0.3849967556955528,-0.002365706446296335,0.06044167296021294,0.0,0.0,0.0,0.02585
518,-2.799264285478946,0.0744255690876257,0.016719708544328436,4.800361488368873,0.20569189236176916,0.3706300636379881,0.01888781760260968,0.05646646402834712,0.0,0.0,0.0,0.0259
519,-3.0290961832194574,-0.0695819349288976,0.08350099151488444,4.682200509344495,0.6945515012805902,0.3371184826591229,-0.0045139271733689,0.04061838870357472,0.0,0.0,0.0,0.02595
520,2.833348921780333,0.03181434953011652,0.017780103091840884,4.979437054349561,0.1373536268084836,-0.5865863936005048,0.00011758759722541251,0.05644514837049018,0.0,0.0,0.0,0.026000000000000002
521,-3.117452633756574,-0.2513569481999918,-0.16956218125139674,4.115451953292284,-0.33225138426868295,1.250893514736153,-0.005114179487915777,0.05916126632028902,0.0,0.0,0.0,0.02605
522,3.131232477019547,0.007011362034247716,-0.05987705068635608,4.67855443347014,-0.3438638251998253,0.6323733619171477,-0.016033066149537648,0.056129548064565105,0.0,0.0,0.0,0.0261
523,3.122621282264045,0.0698208242212892,-0.0761315926881103,5.330168166503716,0.6603402488524968,0.3543202602699146,-0.015194479274205943,0.06574007729240684,0.0,0.0,0.0,0.02615
524,3.0213580127565183,0.10889863164231052,0.3075336327652363,5.171746238641231,-0.1993618501619035,-0.3800062316360089,0.004535994826509572,0.05755788655848162,0.0,0.0,0.0,0.0262
525,2.9790589170793997,0.03670239211782232,-0.06984592183166438,4.926907831819496,-0.4204569161175703,0.42170288232837616,-0.00854360988657557,0.054442278696629584,0.0,0.0,0.0,0.026250000000000002
526,-2.7359083965656863,-0.07944669731029402,0.18396373967234575,5.117209321525496,0.6073030973318991,-0.8643843713369496,-0.012761439393814307,0.04963217090075398,0.0,0.0,0.0,0.0263
527,2.7743346431945337,-0.10950426022680033,-0.25688540380400504,4.9097572945711185,-1.9230957649050506,-0.31578700128830445,-0.005941675030282683,0.0683873225522025,0.0,0.0,0.0,0.026350000000000002
528,3.0524377906123266,0.10694584903747215,-0.10982323018572655,5.003617023602049,-0.9524778366504414,0.40127826572373926,0.016783634919697952,0.06858405827061267,0.0,0.0,0.0,0.0264
529,-2.819150762893095,0.021564284072291127,-0.16229700744671458,5.541858320331752,-0.5415003896107604,-0.16751774400239022,-0.0014951766797250072,0.045503450862427505,0.0,0.0,0.0,0.02645
530,-2.75021731570788,0.12456037125721721,0.006601311806235269,4.604048468758647,0.7861478703298899,-0.02652776926408179,0.004579694840298194,0.048471131791534616,0.0,0.0,0.0,0.026500000000000003
531,-3.120491714893937,0.07353523306956951,0.1655227187158103,4.901860384257108,0.23529342960361355,-0.873119440364141,-0.00999200477914685,0.050545222525070974,0.0,0.0,0.0,0.02655
532,-2.7035078869309026,-0.2516551811091476,0.07748526905713893,5.397411078113778,0.5002114505678359,0.7032916207012936,-0.019942570876435115,0.04726108459150359,0.0,0.0,0.0,0.026600000000000002
533,3.0319130245712818,0.10533291235130943,0.023330304662522644,4.832234655200176,-0.5747038168717318,-0.10402413126469623,0.00527589745278954,0.044750549757107294,0.0,0.0,0.0,0.02665
534,-2.845943725325499,0.09787230591188519,0.2498479102450234,5.105190950870107,1.2750167273079698,-0.7019907358815946,-0.005182606412109106,0.052720124007732704,0.0,0.0,0.0,0.0267
535,3.0095428975638145,-0.1124759918905641,-0.01495698372919171,5.074607781099308,-1.474225833150988,0.5515895237847681,-0.019565459214171414,0.05363622568421285,0.0,0.0,0.0,0.026750000000000003
536,-2.8292522242516243,-0.02298883054516816,0.027411628541634557,4.981114952666187,-0.20153822418470146,0.4345533210238969,0.01152083557891861,0.04328372325006018,0.0,0.0,0.0,0.0268
537,-2.79266594320614,0.07657744202173092,-0.20694410920676912,4.732921212487468,-0.23242993291117647,0.6879655578965826,0.0005633794379379621,0.048954696160196765,0.0,0.0,0.0,0.026850000000000002
538,3.0745231697151527,0.05161465499314017,-0.332493410862515,5.370967697447214,-1.361124276799229,-1.1966634360692336,-0.00598819346644067,0.04896466341532963,0.0,0.0,0.0,0.0269
539,3.050055050466465,0.11668941948045292,-0.019745482032209646,4.565768104817023,0.26682079932982017,-0.5287571509236301,-0.004096538611378448,0.06474275051997955,0.0,0.0,0.0,0.02695
540,3.1323554078393316,0.08328191247424914,0.1667806308083399,4.984210774462245,0.5381225787370331,-0.5095598911194882,-0.009738001883810736,0.041851184569619955,0.0,0.0,0.0,0.027000000000000003
541,2.560918661414014,-0.012644489504825808,-0.18117640131484036,5.219812263553891,0.0355917358964159,0.4287791492172082,0.003711921799362658,0.060665340743042744,0.0,0.0,0.0,0.02705
542,2.94820132329238,0.06331631560881243,0.013656372828382673,4.422879236514891,0.08127120603172985,-0.42911677389265224,-0.006942728349597678,0.03930509447519725,0.0,0.0,0.0,0.027100000000000003
543,-2.618573921944954,-0.14303914487596753,-0.012883358583263916,4.798716639961859,0.9044695519551271,-0.03347132870862801,-0.023208688769744315,0.04225823540255355,0.0,0.0,0.0,0.02715
544,-3.0697344248011613,-0.11667568176035072,0.2289574550555021,5.318518696744165,1.5649050974418284,-0.5132802777930742,-0.006779176266517268,0.052729337181133325,0.0,0.0,0.0,0.027200000000000002
545,-2.753629312351857,0.04302456232829312,0.003981304687978389,5.390120379009308,0.44447107631036104,-0.35733597995346406,0.002237858296264426,0.043891555425728035,0.0,0.0,0.0,0.027250000000000003
546,-2.9274578710403416,-0.11301208649007567,-0.1427197122641128,4.385067684055041,0.0008627982893670283,0.2589679971836242,-0.025592456256179286,0.0499886639170938,0.0,0.0,0.0,0.0273
547,2.329776195952295,0.1575390820328782,-0.1373277199862844,5.019717799556151,-0.05941334379919683,-0.35586516926997347,0.019146262196175788,0.04800307243830116,0.0,0.0,0.0,0.027350000000000003
548,2.9384195037756755,0.09628842158401318,-0.051993284167028364,5.079226273587598,-0.6804332173238936,0.3483555883067958,-0.012575292203018158,0.04759967780052614,0.0,0.0,0.0,0.0274
549,-3.1088372849003294,-0.19546258346528103,-0.18039075111630049,5.214536424433009,0.11593109189900319,1.2613847914343397,0.0018347217247711247,0.03896155100620923,0.0,0.0,0.0,0.027450000000000002
550,2.8413306794343423,0.14785362042127037,0.1812186550987152,4.863552193846775,-0.32606795765084357,0.21718217565105435,0.006828755469020086,0.06259874903941365,0.0,0.0,0.0,0.027500000000000004
551,-2.706742217300865,0.05313128010705038,-0.1639860341002208,4.780413296020351,-0.433703587162434,-0.4767193506463122,0.010733247773478642,0.048192002387049536,0.0,0.0,0.0,0.02755
552,3.1154696889689872,0.00859719973116843,-0.01032839449074645,4.712613441506582,0.33408044273588267,0.2321600068813384,-0.015890691917950797,0.03925167488625193,0.0,0.0,0.0,0.027600000000000003
553,-2.923116492246994,-0.014084869176653381,-0.0112212921350114,4.850386200341346,-0.5845865047022057,0.40252226583271455,-0.012772206578377698,0.05212091931675871,0.0,0.0,0.0,0.02765
554,3.0467893013248872,-0.016204174188647436,0.03212500470644761,5.1673810995755955,-0.5674190723547824,-0.19899611762345545,0.009762889965578194,0.041381781417139996,0.0,0.0,0.0,0.027700000000000002
555,-2.612661533105266,-0.025247240126542392,0.047590411593414726,5.1855689666202425,0.3438814355664371,0.12361137137112466,0.011450639182269665,0.055415271447353115,0.0,0.0,0.0,0.027750000000000004
556,2.782202851047844,-0.273910402704961,0.09328319190224452,4.625980704637064,-0.41165156050580687,0.8347497977902993,-0.0001877998656843404,0.047204318259578264,0.0,0.0,0.0,0.027800000000000002
557,-3.091278987116312,0.11135947979075664,-0.043257211717449784,5.455629981210406,-0.05708223772199822,0.6514720616110647,-0.009420765019441765,0.044084678918247217,0.0,0.0,0.0,0.027850000000000003
558,-2.6738989550596384,0.2897967654193591,0.05831530548798338,4.930160334847629,0.2140383503419792,-1.029821318477183,-0.024361772808508292,0.04640413208168519,0.0,0.0,0.0,0.0279
559,2.7328198196587414,0.07177169953523163,-0.09430126537899024,5.683618190496582,-0.28227856410146074,0.14007608889467488,-0.00796223372724768,0.04274597662808527,0.0,0.0,0.0,0.027950000000000003
560,-3.123720704478013,-0.09354910565230462,-0.04120368198055859,4.976191511348293,0.0695906855470789,0.3896223035939909,-0.01128822746762792,0.05427364243889388,0.0,0.0,0.0,0.028000000000000004
561,2.5643757823341176,-0.052982338991399834,-0.2428514217157986,4.573288749045191,-1.1739150655892003,0.47144346761962885,-0.013818992628640349,0.047926280932230884,0.0,0.0,0.0,0.028050000000000002
562,3.10351076050993,-0.24882163735124874,-0.039353724856808096,4.835513706216995,-0.7480971386472142,0.9372076411823516,0.0022343307875926323,0.04740790589611608,0.0,0.0,0.0,0.028100000000000003
563,-3.0796082017139823,-0.297938384627687,-0.09582917980381472,4.836225696033162,0.4419014191850583,1.0886736058696704,-0.017970530308770157,0.024236138980315874,0.0,0.0,0.0,0.02815
564,-2.9501024427012346,-0.17454989735573265,0.07361429358267842,4.6693499172884705,1.390295472429553,-0.18944318530700255,-0.0028200274818719513,0.025247922573673167,0.0,0.0,0.0,0.028199999999999996
565,2.747092639895955,-0.07372797986496286,0.026856292613111055,4.8525404420613985,-0.39896152925645545,0.5597204565206396,0.004448635009394432,0.044653746925374146,0.0,0.0,0.0,0.028250000000000004
566,2.5318376692525817,0.16506196603440057,-0.15049663401232008,5.2768662657239265,-0.07117096761189956,0.16656700771707383,0.006966996596909906,0.04521367325407062,0.0,0.0,0.0,0.028300000000000002
567,-2.8009278393417616,0.08596956395881852,-0.2539593578698043,5.0432991965840435,-0.23431124444731444,0.3668695735671199,0.00893652183157613,0.04166396640541694,0.0,0.0,0.0,0.028350000000000004
568,-3.0475037601211437,0.10734255529897767,-0.16357092604173185,4.979795141966762,0.056281159486262694,0.055526100048543414,0.007033844784917738,0.04786773303266449,0.0,0.0,0.0,0.028399999999999998
569,3.038025496014559,0.331605996017607,-0.1934963456598214,5.0246013604928494,0.5949452852899253,-0.6870037525594064,-0.011484155981473503,0.05047090073269747,0.0,0.0,0.0,0.028450000000000003
570,-2.798205223734813,0.13276804104247156,0.01081374515737394,4.809723931323393,-0.030699788445321563,-0.542872010498341,0.0030674031839652395,0.07198021898885468,0.0,0.0,0.0,0.028500000000000004
571,3.076930097022716,-0.010811019080701962,-0.09527472111642962,4.7939658624798565,-0.13523055674184356,0.3500369507357261,0.0025222989387437746,0.0514336928650432,0.0,0.0,0.0,0.028550000000000002
572,-3.0351646064608184,-0.21649235707704206,-0.0762817398041212,5.2707984844107,0.16331919615163787,-0.09561971570774735,-0.0266423668696106,0.05097398495286871,0.0,0.0,0.0,0.028599999999999997
573,-2.881312087008681,-0.09329361771123948,-0.06979324971535691,5.400490452814464,0.3504090583945177,-0.010568019175061755,0.027748966031788544,0.029701474820140655,0.0,0.0,0.0,0.028650000000000002
574,2.93842711855553,0.1953552637454576,0.2432332413034063,5.251007313881097,0.36303295731480584,-0.21048310963187744,-0.01570910215699165,0.04210453698292987,0.0,0.0,0.0,0.028700000000000003
575,2.663725285503126,-0.013516968387672272,0.07128530862523656,5.226903145223612,0.1086799617867476,0.5830763223677421,-0.00013891258969723173,0.06319420458287542,0.0,0.0,0.0,0.028750000000000005
576,2.9315133461933653,-0.31601257455935505,-0.30429189137243967,5.175387733596465,-1.557911510030775,-0.07691433086045896,-0.023758986228210037,0.044182787945382,0.0,0.0,0.0,0.0288
577,3.0939191167664655,0.06575872035457578,0.13117666225923952,4.717127217690725,-0.6283633781402352,-0.10632933822602214,-0.014728316568827164,0.05313270635002827,0.0,0.0,0.0,0.028850000000000004
578,3.06312760027237,-0.00602859309722893,-0.090074616158408,4.741985322407553,0.10309459996718631,-0.5614258881362855,0.0047690951792484365,0.058834912150238235,0.0,0.0,0.0,0.028900000000000002
579,-2.7150023026749825,0.11550298204660903,-0.042184212566327324,5.456841696608907,-0.542400967134876,-0.4003801121770411,-0.019348772207284586,0.03781880389752313,0.0,0.0,0.0,0.028950000000000004
580,-2.9609718631328383,-0.24746541134392452,0.07700646234117485,4.478015994207977,0.617606802070667,0.759219024340067,-0.007932115632583182,0.05100054385119961,0.0,0.0,0.0,0.028999999999999998
581,3.021787940656023,0.10762254819005689,0.24808399432936235,5.13692967625137,0.721706115058903,0.25105803740370514,0.009005073137132003,0.05953328168244397,0.0,0.0,0.0,0.029050000000000003
582,2.983591722198571,-0.009879736252509187,0.02259693175679276,4.851961709172078,-0.6237841213088322,-0.38351962972376374,-0.013837805705041185,0.04039851156151529,0.0,0.0,0.0,0.029100000000000004
583,2.5628105555765357,-0.049901744637381666,-0.09197197051948636,4.956360682311548,-0.4679100451302476,-0.8373669394305958,0.0074121180007213835,0.045529618221237814,0.0,0.0,0.0,0.029150000000000002
584,-3.0586051210263876,0.043061140903081746,0.010480343812097547,4.5484032011881315,-0.09036868464512,-0.3172628046366274,0.002797475773831855,0.06325881444393947,0.0,0.0,0.0,0.029199999999999997
585,-2.8181243434457044,0.05438650954030967,0.06238643154044561,4.953329546221048,0.8758647700613075,0.1886880684301248,-0.0013554787061114217,0.0681585349825174,0.0,0.0,0.0,0.029250000000000005
586,-2.7549815863736624,0.2145569209227561,0.11916347269285711,4.958272388491776,0.20777685241876453,-0.4022448602019179,0.006229251127612444,0.033831509317753805,0.0,0.0,0.0,0.029300000000000003
587,3.0596759431568787,0.1398923717075276,-0.22407562727343597,5.303779479890895,-0.5240787900598396,-0.3591378434210579,0.000616688745129575,0.036657789352311135,0.0,0.0,0.0,0.029350000000000005
588,3.036959422394837,0.14029975666787423,-0.009066381689335153,5.462346731594252,0.09504543417871447,0.7193276500989187,0.003007016677387864,0.04568537055294287,0.0,0.0,0.0,0.0294
589,-2.9352595486914956,-0.11516802117769945,0.0010170389569631206,5.495952325480894,0.2670414240590113,0.5452624920252152,0.002716132777652801,0.04513204962924763,0.0,0.0,0.0,0.029449999999999997
590,2.909610410569435,-0.050473088854727934,0.14415769456404112,4.898161375014576,-1.1638539486855763,0.0507938629793165,-0.009499693760286563,0.048808740402938575,0.0,0.0,0.0,0.029500000000000005
591,2.394182298978573,0.05506471742792503,0.06042738643470694,5.0010749775213075,0.4303655992274172,-0.10043113365526735,0.0029623654796400558,0.058255817044328646,0.0,0.0,0.0,0.029550000000000003
592,3.0969751447031593,-0.1375431701156931,-0.10440726367227376,4.779507291308933,-0.9173325329443921,-0.09791101252894713,-0.011163789667262985,0.03200192780377653,0.0,0.0,0.0,0.029599999999999998
593,-2.6732077259172455,0.020756074077216503,-0.13863326835203993,4.678425856225867,0.14727270760937894,0.013738370700306118,-0.005270384966307318,0.03921332884303159,0.0,0.0,0.0,0.02965
594,-2.8854299607284473,-0.17787225018697497,0.10623492224660837,4.802727567969999,0.5667578135128948,0.7744165610155354,0.0028804245887051145,0.03658821659566457,0.0,0.0,0.0,0.029700000000000004
595,-2.599191933749703,-0.060181498939887904,-0.08241845245054667,5.396356035023996,0.5989869120449269,0.06450305619256239,-0.018743721412509098,0.060982561260017,0.0,0.0,0.0,0.029750000000000006
596,3.027853053771824,-0.20656460437118382,-0.2934034413996317,5.020841915482405,-0.9922894455254064,-0.1548386726602483,-0.020229432323314138,0.05512716153656984,0.0,0.0,0.0,0.0298
597,3.0335335090658107,0.10459405270770938,0.11679601540051562,4.632909279390613,0.2654307082844758,-0.04406148641229224,0.004586297722830411,0.04814808559924279,0.0,0.0,0.0,0.029849999999999998
598,2.816798611169728,-0.005831118253241235,-0.07084873583541122,4.651316031007071,-0.7437451705830109,-0.01066560869034451,-0.009658345476465931,0.04567057261191778,0.0,0.0,0.0,0.029900000000000003
599,-2.924912666132533,0.30476565830266117,0.048244801614449676,5.066841182690233,-0.6668752189469882,-0.6890192574424608,-0.006073093594776176,0.0534434683045445,0.0,0.0,0.0,0.029950000000000004
600,2.962282522565836,-0.18594166211277838,0.1791991014604117,5.213455704129163,-0.9894081015596847,0.4948068553052517,0.0004065352306236924,0.045607305507489676,0.0,0.0,0.0,0.030000000000000006
601,2.92620541749253,-0.17311917058878967,0.09271089693060139,5.131017052230452,-0.7603244772838758,0.30082073148378513,-0.004579989399463621,0.06548728948583195,0.0,0.0,0.0,0.03005
602,3.024558979454006,0.11515223430385695,0.0015807704641891682,5.261975879870002,0.40407233978521084,-0.06536419930629545,-0.015333116054581791,0.04806115592768833,0.0,0.0,0.0,0.030100000000000005
603,-2.771866465321672,-0.024747098167256038,0.08889567318170387,5.355852381913939,0.5046731295417575,-0.8003799582270428,0.00629211539722968,0.055521268758303065,0.0,0.0,0.0,0.030150000000000003
604,-3.082057110891921,0.11609385794313216,0.25013225153042357,5.120228255285909,1.5818633119416399,-0.19617498673662132,0.016560836899631757,0.06028032908188182,0.0,0.0,0.0,0.030200000000000005
605,-3.035356287813493,0.018841613865023542,-0.0586300078490874,4.77959857658284,-0.4142566821725486,-0.1188946339502697,0.0014003281086796193,0.06588238702310656,0.0,0.0,0.0,0.03025
606,2.947248893613594,0.19534567383334203,-0.20512226543951295,5.026004685676795,-0.07346840251366749,0.18697364035837327,-0.0063580723722260635,0.06801640632953065,0.0,0.0,0.0,0.030300000000000004
607,2.8606689120569957,-0.09381694174979349,0.2680102700601799,4.263329522995483,0.6269640268610375,-0.16722839308275655,-0.009125166749083712,0.03918246035463717,0.0,0.0,0.0,0.030350000000000005
608,-2.8948232400547753,-0.0884354775405131,0.12288735821773342,5.23160376494094,0.4010612034169636,0.2808850554438726,-0.014948263266766836,0.04879792514352294,0.0,0.0,0.0,0.030400000000000003
609,-2.984030199667053,-0.05881471924708225,-0.04175161534217802,4.834563254307519,0.16078246554903336,0.14679452211797622,-0.015858037765795027,0.0484418605175932,0.0,0.0,0.0,0.030449999999999998
610,2.807721368041416,0.1992623698640669,-0.20336114486324083,5.334467124253092,-0.6927285446472954,-0.8723523225091722,0.00537111412209506,0.043429994390546,0.0,0.0,0.0,0.030500000000000006
611,2.8789840299509484,0.025535779658340363,0.18020242180814083,5.0519614627483405,-0.3064789461739431,0.5248304023141964,-0.008026016411771881,0.05666833644019117,0.0,0.0,0.0,0.030550000000000004
612,-2.8253167440697773,0.21508785823347581,-0.14802095768853005,4.9159322320237715,-0.7510806896365044,-0.5065377558976522,-0.0020039002492558146,0.04177917186341046,0.0,0.0,0.0,0.030600000000000006
613,2.555598255654967,0.060172780577115254,-0.11349226656874695,5.005018742982033,-0.5686160846086921,-0.043988156746575566,-0.00270804796098776,0.04185024004446936,0.0,0.0,0.0,0.03065
614,-3.1323935106445004,0.16865589330840156,0.16006236734617538,5.058902135400017,0.20347593539582953,-1.8828142125980645,0.005536335856011652,0.07556647416840231,0.0,0.0,0.0,0.030700000000000005
615,-3.014882781363574,-0.04744060813526993,-0.0011283752879245694,5.021525115665847,-0.010244214274657645,-0.13292430142073286,-0.02039654604543833,0.04362276692034131,0.0,0.0,0.0,0.030750000000000006
616,3.016199405695674,0.04490049621379084,0.0653455436629622,4.719768655080344,0.17030797060633374,0.5694572586920927,-0.01315792552864233,0.05388683090637945,0.0,0.0,0.0,0.030800000000000004
617,2.776692952375708,-0.1369947415573049,0.06320789962631171,5.454467344343486,0.2517296987124079,0.4753842419459936,-0.009720993059733788,0.049680057560588395,0.0,0.0,0.0,0.03085
618,-2.7686086619305796,0.2804242640538643,0.04335327797690887,4.673883390692755,-0.24292145140876742,-1.1092594784983032,-0.006674562748724037,0.06187456139590916,0.0,0.0,0.0,0.0309
619,-2.935686151532883,0.0042791226292490945,0.10841264250826395,4.964895336339856,0.9444104172636414,-0.7368577065889349,-0.0239052580121135,0.031862639465688916,0.0,0.0,0.0,0.030950000000000005
620,-2.8173061560796584,0.13572138647036985,0.18941164053487908,5.1229872782779555,1.0913139784205683,-0.15506887334965286,0.01735530210364953,0.056329829577543684,0.0,0.0,0.0,0.031000000000000007
621,2.8090161987628464,0.011963254896930007,-0.1305594674138988,5.108739286045013,-0.6459203907629228,-0.8577157883101616,0.0018538180924599764,0.055295747589673025,0.0,0.0,0.0,0.03105
622,3.096066313467621,0.03018940629630571,-0.1838530383570555,5.084995850641674,-0.07307454404627478,-0.8779982523874805,-0.00748278286339474,0.06789188044176803,0.0,0.0,0.0,0.0311
623,-2.79057538759726,-0.09407114495620356,0.034403633719439754,4.6549903664349355,1.1848502303811284,0.8151125971411162,0.016464216608281873,0.04980375816040346,0.0,0.0,0.0,0.031150000000000004
624,2.935362699204965,0.02760680108093214,-0.19011351444219912,5.412578817094197,-1.062186286738919,-0.16802637921384497,-0.00242041875389779,0.04590882228315597,0.0,0.0,0.0,0.031200000000000006
625,3.036962896057013,0.150041144171548,0.023758126141956548,4.68885281850396,-0.6026772993496367,-0.22912484704280228,0.0016839684207181132,0.05808501237855028,0.0,0.0,0.0,0.03125
626,-3.081322797637917,0.05977762156674829,-0.10643286173702347,4.387075537228094,-0.3293947331943772,1.2158071618144912,0.004875572816808107,0.034300821611261016,0.0,0.0,0.0,0.0313
627,3.0188886795666514,-0.19327493736694729,0.09489048906676559,4.89376949510094,0.03922729324819596,0.6090427480300373,-0.012983126900084654,0.04667133150481463,0.0,0.0,0.0,0.03135
628,2.827794681525799,-0.1056037014434517,0.19043596790419334,4.840524539051339,0.18052710961120644,0.8372528786256047,-0.0006513803157730518,0.02916882382438648,0.0,0.0,0.0,0.031400000000000004
