time[sec],yaw,pitch,roll,x,y,z,acc_x,acc_y,acc_z,omega_x,omega_y,omega_z
0.0,0.0,0.0,0.0,-0.18623883905566924,0.0,0.0,0.5000482880656303,0.0,0.0,0.0,0.0,0.0
0.005,0.0,0.0,0.0,-0.1180128016606974,0.0,0.0,0.49343975601727114,0.0,0.0,0.0,0.0,0.0
0.01,0.0,0.0,0.0,-0.0016492846778744692,0.0,0.0,0.5059811911099588,0.0,0.0,0.0,0.0,0.0
0.015,0.0,0.0,0.0,-0.2973721801181765,0.0,0.0,0.4878421257459089,0.0,0.0,0.0,0.0,0.0
0.02,0.0,0.0,0.0,-0.49182942913152694,0.0,0.0,0.4970026212297131,0.0,0.0,0.0,0.0,0.0
0.025,0.0,0.0,0.0,0.396234912787187,0.0,0.0,0.4936956394165353,0.0,0.0,0.0,0.0,0.0
0.03,0.0,0.0,0.0,0.18959789197388252,0.0,0.0,0.49910800272186345,0.0,0.0,0.0,0.0,0.0
0.035,0.0,0.0,0.0,-0.529340228026935,0.0,0.0,0.48513794894337847,0.0,0.0,0.0,0.0,0.0
0.04,0.0,0.0,0.0,0.08657931475138661,0.0,0.0,0.4923323147745578,0.0,0.0,0.0,0.0,0.0
0.045,0.0,0.0,0.0,-0.09482912432378934,0.0,0.0,0.5015017243393817,0.0,0.0,0.0,0.0,0.0
0.05,0.0,0.0,0.0,0.15276647795736242,0.0,0.0,0.4934384605816278,0.0,0.0,0.0,0.0,0.0
0.055,0.0,0.0,0.0,-0.19520533722613917,0.0,0.0,0.48550936394998034,0.0,0.0,0.0,0.0,0.0
0.06,0.0,0.0,0.0,0.2764447980236707,0.0,0.0,0.48599231647273483,0.0,0.0,0.0,0.0,0.0
0.065,0.0,0.0,0.0,-0.5825132186408059,0.0,0.0,0.497922891800594,0.0,0.0,0.0,0.0,0.0
0.07,0.0,0.0,0.0,0.36181222919775796,0.0,0.0,0.49957345693010446,0.0,0.0,0.0,0.0,0.0
0.075,0.0,0.0,0.0,0.29704858557407127,0.0,0.0,0.495431192833191,0.0,0.0,0.0,0.0,0.0
0.08,0.0,0.0,0.0,-0.5180203456040006,0.0,0.0,0.5187869009679745,0.0,0.0,0.0,0.0,0.0
0.085,0.0,0.0,0.0,0.3645248056455592,0.0,0.0,0.4974127318606567,0.0,0.0,0.0,0.0,0.0
0.09,0.0,0.0,0.0,0.3460481647663649,0.0,0.0,0.49788414304294853,0.0,0.0,0.0,0.0,0.0
0.095,0.0,0.0,0.0,0.002167750855745261,0.0,0.0,0.5148397013481145,0.0,0.0,0.0,0.0,0.0
0.1,0.0,0.0,0.0,0.11886998885923955,0.0,0.0,0.4787408586775946,0.0,0.0,0.0,0.0,0.0
0.105,0.0,0.0,0.0,-0.04653203288291426,0.0,0.0,0.5088322593155767,0.0,0.0,0.0,0.0,0.0
0.11,0.0,0.0,0.0,-0.09995306281129826,0.0,0.0,0.49892283860664777,0.0,0.0,0.0,0.0,0.0
0.115,0.0,0.0,0.0,0.09024957119918432,0.0,0.0,0.5143932980054998,0.0,0.0,0.0,0.0,0.0
0.12,0.0,0.0,0.0,-0.08540647453226988,0.0,0.0,0.5155065501454872,0.0,0.0,0.0,0.0,0.0
0.125,0.0,0.0,0.0,0.2592517432661217,0.0,0.0,0.48819357415268283,0.0,0.0,0.0,0.0,0.0
0.13,0.0,0.0,0.0,0.4156472823861781,0.0,0.0,0.4986977014736767,0.0,0.0,0.0,0.0,0.0
0.135,0.0,0.0,0.0,0.09103988227801613,0.0,0.0,0.4995737215098913,0.0,0.0,0.0,0.0,0.0
0.14,0.0,0.0,0.0,0.09048939140398057,0.0,0.0,0.4784328119464284,0.0,0.0,0.0,0.0,0.0
0.145,0.0,0.0,0.0,0.10811960294965828,0.0,0.0,0.4982017442097279,0.0,0.0,0.0,0.0,0.0
0.15,0.0,0.0,0.0,0.34685392875945603,0.0,0.0,0.48826327559015453,0.0,0.0,0.0,0.0,0.0
0.155,0.0,0.0,0.0,-0.1593635834447648,0.0,0.0,0.4949721571569201,0.0,0.0,0.0,0.0,0.0
0.16,0.0,0.0,0.0,0.3075266238953043,0.0,0.0,0.5143766477169242,0.0,0.0,0.0,0.0,0.0
0.165,0.0,0.0,0.0,0.2962421159687532,0.0,0.0,0.4963451807749733,0.0,0.0,0.0,0.0,0.0
0.17,0.0,0.0,0.0,-0.026132487048097723,0.0,0.0,0.48755709557355414,0.0,0.0,0.0,0.0,0.0
0.17500000000000002,0.0,0.0,0.0,-0.15338591592622666,0.0,0.0,0.504582598735475,0.0,0.0,0.0,0.0,0.0
0.18,0.0,0.0,0.0,0.44619762572959365,0.0,0.0,0.5011375699990529,0.0,0.0,0.0,0.0,0.0
0.185,0.0,0.0,0.0,-0.6527944756213722,0.0,0.0,0.4923294470038831,0.0,0.0,0.0,0.0,0.0
0.19,0.0,0.0,0.0,-0.23605940236553533,0.0,0.0,0.5031310693118554,0.0,0.0,0.0,0.0,0.0
0.195,0.0,0.0,0.0,0.20544480791362646,0.0,0.0,0.5080917500687204,0.0,0.0,0.0,0.0,0.0
0.2,0.0,0.0,0.0,0.13112566861079633,0.0,0.0,0.5047363264155772,0.0,0.0,0.0,0.0,0.0
0.20500000000000002,0.0,0.0,0.0,-0.5135400916269411,0.0,0.0,0.5099650012150171,0.0,0.0,0.0,0.0,0.0
0.21,0.0,0.0,0.0,-0.09995359624519089,0.0,0.0,0.5053825868381977,0.0,0.0,0.0,0.0,0.0
0.215,0.0,0.0,0.0,-0.494439962990077,0.0,0.0,0.5137411895599767,0.0,0.0,0.0,0.0,0.0
0.22,0.0,0.0,0.0,-0.03258135068080799,0.0,0.0,0.5047218239725341,0.0,0.0,0.0,0.0,0.0
0.225,0.0,0.0,0.0,0.41016270567988344,0.0,0.0,0.5086071741987863,0.0,0.0,0.0,0.0,0.0
0.23,0.0,0.0,0.0,0.2664253723328738,0.0,0.0,0.4936643053045992,0.0,0.0,0.0,0.0,0.0
0.23500000000000001,0.0,0.0,0.0,-0.3194751321457874,0.0,0.0,0.5059618690866962,0.0,0.0,0.0,0.0,0.0
0.24,0.0,0.0,0.0,0.28573162796137613,0.0,0.0,0.48661732673082414,0.0,0.0,0.0,0.0,0.0
0.245,0.0,0.0,0.0,0.16400244835994357,0.0,0.0,0.5090264607728057,0.0,0.0,0.0,0.0,0.0
0.25,0.0,0.0,0.0,0.09197700682078827,0.0,0.0,0.5060878061764151,0.0,0.0,0.0,0.0,0.0
0.255,0.0,0.0,0.0,-0.07564422466004411,0.0,0.0,0.5035951800017581,0.0,0.0,0.0,0.0,0.0
0.26,0.0,0.0,0.0,-0.054572014606996004,0.0,0.0,0.5068538187331605,0.0,0.0,0.0,0.0,0.0
0.265,0.0,0.0,0.0,-0.19279528277837213,0.0,0.0,0.5047428679197015,0.0,0.0,0.0,0.0,0.0
0.27,0.0,0.0,0.0,0.19084675944960042,0.0,0.0,0.4948289892737792,0.0,0.0,0.0,0.0,0.0
0.275,0.0,0.0,0.0,-0.3452893094392688,0.0,0.0,0.5101905923082183,0.0,0.0,0.0,0.0,0.0
0.28,0.0,0.0,0.0,0.10791767819427908,0.0,0.0,0.4974072574596353,0.0,0.0,0.0,0.0,0.0
0.28500000000000003,0.0,0.0,0.0,-0.2323583007890019,0.0,0.0,0.49011924785043337,0.0,0.0,0.0,0.0,0.0
0.29,0.0,0.0,0.0,0.33089106957003855,0.0,0.0,0.5029557056710958,0.0,0.0,0.0,0.0,0.0
0.295,0.0,0.0,0.0,0.2147708862529041,0.0,0.0,0.5045797479364084,0.0,0.0,0.0,0.0,0.0
0.3,0.0,0.0,0.0,0.5417809320653338,0.0,0.0,0.5099203562259853,0.0,0.0,0.0,0.0,0.0
0.305,0.0,0.0,0.0,0.4639425357913442,0.0,0.0,0.4945256205726178,0.0,0.0,0.0,0.0,0.0
0.31,0.0,0.0,0.0,-0.05780423416751676,0.0,0.0,0.5201654985388218,0.0,0.0,0.0,0.0,0.0
0.315,0.0,0.0,0.0,-0.2993830288705821,0.0,0.0,0.48283804306153094,0.0,0.0,0.0,0.0,0.0
0.32,0.0,0.0,0.0,-0.15858901414523,0.0,0.0,0.49104778438268676,0.0,0.0,0.0,0.0,0.0
0.325,0.0,0.0,0.0,-0.26650811902591764,0.0,0.0,0.5173423208415348,0.0,0.0,0.0,0.0,0.0
0.33,0.0,0.0,0.0,-0.49558891413023926,0.0,0.0,0.49491290015267664,0.0,0.0,0.0,0.0,0.0
0.335,0.0,0.0,0.0,-0.07887542613661935,0.0,0.0,0.5180388696823659,0.0,0.0,0.0,0.0,0.0
0.34,0.0,0.0,0.0,-0.1660419469010293,0.0,0.0,0.505492511390849,0.0,0.0,0.0,0.0,0.0
0.34500000000000003,0.0,0.0,0.0,0.22152859910975786,0.0,0.0,0.4989114158385916,0.0,0.0,0.0,0.0,0.0
0.35000000000000003,0.0,0.0,0.0,0.6222587347431859,0.0,0.0,0.5096251389203014,0.0,0.0,0.0,0.0,0.0
0.355,0.0,0.0,0.0,0.21013460563629563,0.0,0.0,0.49364292636749846,0.0,0.0,0.0,0.0,0.0
0.36,0.0,0.0,0.0,-0.18956102769542046,0.0,0.0,0.4765114526048333,0.0,0.0,0.0,0.0,0.0
0.365,0.0,0.0,0.0,0.17392165913961746,0.0,0.0,0.4948992297470289,0.0,0.0,0.0,0.0,0.0
0.37,0.0,0.0,0.0,0.09724846789567293,0.0,0.0,0.5085248584984846,0.0,0.0,0.0,0.0,0.0
0.375,0.0,0.0,0.0,-0.10094061697137062,0.0,0.0,0.482673513532212,0.0,0.0,0.0,0.0,0.0
0.38,0.0,0.0,0.0,-0.3469819113697755,0.0,0.0,0.5039542606137265,0.0,0.0,0.0,0.0,0.0
0.385,0.0,0.0,0.0,-0.25835668252479205,0.0,0.0,0.5036430419368969,0.0,0.0,0.0,0.0,0.0
0.39,0.0,0.0,0.0,0.36137190906239713,0.0,0.0,0.4885136117109677,0.0,0.0,0.0,0.0,0.0
0.395,0.0,0.0,0.0,-0.18365341132485521,0.0,0.0,0.5057702883509523,0.0,0.0,0.0,0.0,0.0
0.4,0.0,0.0,0.0,0.32278565533907616,0.0,0.0,0.49898764751739205,0.0,0.0,0.0,0.0,0.0
0.405,0.0,0.0,0.0,0.5953720194926452,0.0,0.0,0.5018069848545342,0.0,0.0,0.0,0.0,0.0
0.41000000000000003,0.0,0.0,0.0,0.09395874513552716,0.0,0.0,0.5012162544050043,0.0,0.0,0.0,0.0,0.0
0.41500000000000004,0.0,0.0,0.0,0.014398123933281121,0.0,0.0,0.48963317665638245,0.0,0.0,0.0,0.0,0.0
0.42,0.0,0.0,0.0,-0.3619389914346741,0.0,0.0,0.5197223552828555,0.0,0.0,0.0,0.0,0.0
0.425,0.0,0.0,0.0,0.08078039635625606,0.0,0.0,0.5086866671831337,0.0,0.0,0.0,0.0,0.0
0.43,0.0,0.0,0.0,0.5485223565649168,0.0,0.0,0.4951182131177152,0.0,0.0,0.0,0.0,0.0
0.435,0.0,0.0,0.0,0.03957979837403973,0.0,0.0,0.49732777738888667,0.0,0.0,0.0,0.0,0.0
0.44,0.0,0.0,0.0,0.20964805537841832,0.0,0.0,0.5121686459230906,0.0,0.0,0.0,0.0,0.0
0.445,0.0,0.0,0.0,0.05016308740370335,0.0,0.0,0.4882197154289091,0.0,0.0,0.0,0.0,0.0
0.45,0.0,0.0,0.0,0.169320811229541,0.0,0.0,0.4930604521794813,0.0,0.0,0.0,0.0,0.0
0.455,0.0,0.0,0.0,-0.12712710090308627,0.0,0.0,0.5030939439516187,0.0,0.0,0.0,0.0,0.0
0.46,0.0,0.0,0.0,-0.04056363224503984,0.0,0.0,0.4828495738332614,0.0,0.0,0.0,0.0,0.0
0.465,0.0,0.0,0.0,0.4242225595850669,0.0,0.0,0.4944396742540226,0.0,0.0,0.0,0.0,0.0
0.47000000000000003,0.0,0.0,0.0,0.044807861337847595,0.0,0.0,0.4884682613845676,0.0,0.0,0.0,0.0,0.0
0.47500000000000003,0.0,0.0,0.0,0.10660018111385423,0.0,0.0,0.4809358473036662,0.0,0.0,0.0,0.0,0.0
0.48,0.0,0.0,0.0,0.4517581124412641,0.0,0.0,0.49891121829845514,0.0,0.0,0.0,0.0,0.0
0.485,0.0,0.0,0.0,-0.02749112073327547,0.0,0.0,0.5017394258396408,0.0,0.0,0.0,0.0,0.0
0.49,0.0,0.0,0.0,-0.10418390586044755,0.0,0.0,0.5012843311960961,0.0,0.0,0.0,0.0,0.0
0.495,0.0,0.0,0.0,0.011266279320397454,0.0,0.0,0.49480381899952547,0.0,0.0,0.0,0.0,0.0
0.5,0.0,0.0,0.0,-0.38813441318226594,0.0,0.0,0.4935893297302802,0.0,0.0,0.0,0.0,0.0
0.505,0.0,0.0,0.0,0.3903509182849658,0.0,0.0,0.5077987091501868,0.0,0.0,0.0,0.0,0.0
0.51,0.0,0.0,0.0,0.08363231455305775,0.0,0.0,0.49705024806613396,0.0,0.0,0.0,0.0,0.0
0.515,0.0,0.0,0.0,0.2674116471923557,0.0,0.0,0.49906608480582043,0.0,0.0,0.0,0.0,0.0
0.52,0.0,0.0,0.0,0.40259966096043587,0.0,0.0,0.49994795331390307,0.0,0.0,0.0,0.0,0.0
0.525,0.0,0.0,0.0,0.31087407738379846,0.0,0.0,0.5067794904553311,0.0,0.0,0.0,0.0,0.0
0.53,0.0,0.0,0.0,0.10767014724328114,0.0,0.0,0.5060049970963784,0.0,0.0,0.0,0.0,0.0
0.535,0.0,0.0,0.0,-0.38061087220921763,0.0,0.0,0.4985208766963271,0.0,0.0,0.0,0.0,0.0
0.54,0.0,0.0,0.0,-0.5000590197216227,0.0,0.0,0.5031127356114,0.0,0.0,0.0,0.0,0.0
0.545,0.0,0.0,0.0,-0.16475484126158643,0.0,0.0,0.4984652958302106,0.0,0.0,0.0,0.0,0.0
0.55,0.0,0.0,0.0,-0.03282826433926835,0.0,0.0,0.5001724991973185,0.0,0.0,0.0,0.0,0.0
0.555,0.0,0.0,0.0,-0.023510025247483645,0.0,0.0,0.4878389120721064,0.0,0.0,0.0,0.0,0.0
0.56,0.0,0.0,0.0,0.5372402010798999,0.0,0.0,0.5067879933307783,0.0,0.0,0.0,0.0,0.0
0.5650000000000001,0.0,0.0,0.0,0.21420850007123865,0.0,0.0,0.4998960616568341,0.0,0.0,0.0,0.0,0.0
0.5700000000000001,0.0,0.0,0.0,-0.5058175424052415,0.0,0.0,0.5192198685032388,0.0,0.0,0.0,0.0,0.0
0.5750000000000001,0.0,0.0,0.0,0.28871208283415745,0.0,0.0,0.5042633022171339,0.0,0.0,0.0,0.0,0.0
0.58,0.0,0.0,0.0,-0.33201151524961037,0.0,0.0,0.5039013249123534,0.0,0.0,0.0,0.0,0.0
0.585,0.0,0.0,0.0,-0.044596321767484084,0.0,0.0,0.4948213072988992,0.0,0.0,0.0,0.0,0.0
0.59,0.0,0.0,0.0,0.07812088944911891,0.0,0.0,0.5016029758889093,0.0,0.0,0.0,0.0,0.0
0.595,0.0,0.0,0.0,0.06185513698874867,0.0,0.0,0.499860498119948,0.0,0.0,0.0,0.0,0.0
0.6,0.0,0.0,0.0,-0.17525046360767815,0.0,0.0,0.5044426373171788,0.0,0.0,0.0,0.0,0.0
0.605,0.0,0.0,0.0,-0.16440199279867734,0.0,0.0,0.49228253009285355,0.0,0.0,0.0,0.0,0.0
0.61,0.0,0.0,0.0,-0.5727559669367306,0.0,0.0,0.5095220425479161,0.0,0.0,0.0,0.0,0.0
0.615,0.0,0.0,0.0,0.3270463624902597,0.0,0.0,0.48333926676958755,0.0,0.0,0.0,0.0,0.0
0.62,0.0,0.0,0.0,0.403451931236767,0.0,0.0,0.5066856116418789,0.0,0.0,0.0,0.0,0.0
0.625,0.0,0.0,0.0,0.17030262148038483,0.0,0.0,0.502834018944148,0.0,0.0,0.0,0.0,0.0
0.63,0.0,0.0,0.0,-0.5208682291245336,0.0,0.0,0.5112975602597126,0.0,0.0,0.0,0.0,0.0
0.635,0.0,0.0,0.0,0.12758321123965216,0.0,0.0,0.5045626259875885,0.0,0.0,0.0,0.0,0.0
0.64,0.0,0.0,0.0,0.02924158215472744,0.0,0.0,0.50006673170589,0.0,0.0,0.0,0.0,0.0
0.645,0.0,0.0,0.0,0.6626806747784963,0.0,0.0,0.4849264849021865,0.0,0.0,0.0,0.0,0.0
0.65,0.0,0.0,0.0,-0.3530358007831435,0.0,0.0,0.4967853736630501,0.0,0.0,0.0,0.0,0.0
0.655,0.0,0.0,0.0,0.22724285488169377,0.0,0.0,0.5073438733164073,0.0,0.0,0.0,0.0,0.0
0.66,0.0,0.0,0.0,0.31603659522973643,0.0,0.0,0.509665758911789,0.0,0.0,0.0,0.0,0.0
0.665,0.0,0.0,0.0,0.09528104864176515,0.0,0.0,0.5079498758766271,0.0,0.0,0.0,0.0,0.0
0.67,0.0,0.0,0.0,0.09454064145966895,0.0,0.0,0.5070300546069235,0.0,0.0,0.0,0.0,0.0
0.675,0.0,0.0,0.0,0.9100825604663725,0.0,0.0,0.4866019480395648,0.0,0.0,0.0,0.0,0.0
0.68,0.0,0.0,0.0,0.4063705546630724,0.0,0.0,0.49947563577416804,0.0,0.0,0.0,0.0,0.0
0.685,0.0,0.0,0.0,0.12081390453047654,0.0,0.0,0.49224364268128756,0.0,0.0,0.0,0.0,0.0
0.6900000000000001,0.0,0.0,0.0,-0.11613040506450631,0.0,0.0,0.5045873425289438,0.0,0.0,0.0,0.0,0.0
0.6950000000000001,0.0,0.0,0.0,0.01006480260593242,0.0,0.0,0.4912592347312756,0.0,0.0,0.0,0.0,0.0
0.7000000000000001,0.0,0.0,0.0,0.12023312780341561,0.0,0.0,0.49893519991040347,0.0,0.0,0.0,0.0,0.0
0.705,0.0,0.0,0.0,-0.4212292925114558,0.0,0.0,0.5014844544872074,0.0,0.0,0.0,0.0,0.0
0.71,0.0,0.0,0.0,0.11751004866168913,0.0,0.0,0.4863236554286112,0.0,0.0,0.0,0.0,0.0
0.715,0.0,0.0,0.0,0.1605007483586684,0.0,0.0,0.5043837084539622,0.0,0.0,0.0,0.0,0.0
0.72,0.0,0.0,0.0,-0.17251655850713632,0.0,0.0,0.5060291588858016,0.0,0.0,0.0,0.0,0.0
0.725,0.0,0.0,0.0,0.20275794018231363,0.0,0.0,0.488410475288594,0.0,0.0,0.0,0.0,0.0
0.73,0.0,0.0,0.0,0.6292878318350127,0.0,0.0,0.47760488535308276,0.0,0.0,0.0,0.0,0.0
0.735,0.0,0.0,0.0,-0.1453403755922295,0.0,0.0,0.48435148176117526,0.0,0.0,0.0,0.0,0.0
0.74,0.0,0.0,0.0,-0.10336896509674338,0.0,0.0,0.49844680216049786,0.0,0.0,0.0,0.0,0.0
0.745,0.0,0.0,0.0,0.03568751825664126,0.0,0.0,0.4794913863981534,0.0,0.0,0.0,0.0,0.0
0.75,0.0,0.0,0.0,0.2904390823166647,0.0,0.0,0.49588339393530784,0.0,0.0,0.0,0.0,0.0
0.755,0.0,0.0,0.0,0.1735338282344314,0.0,0.0,0.5082834782517704,0.0,0.0,0.0,0.0,0.0
0.76,0.0,0.0,0.0,-0.22685563137511394,0.0,0.0,0.4919084077741602,0.0,0.0,0.0,0.0,0.0
0.765,0.0,0.0,0.0,0.38474962280002106,0.0,0.0,0.5146450762081939,0.0,0.0,0.0,0.0,0.0
0.77,0.0,0.0,0.0,0.14699398873523897,0.0,0.0,0.5116777820639064,0.0,0.0,0.0,0.0,0.0
0.775,0.0,0.0,0.0,0.09800886472681247,0.0,0.0,0.4807468866671834,0.0,0.0,0.0,0.0,0.0
0.78,0.0,0.0,0.0,0.5609793428208992,0.0,0.0,0.5161540694685429,0.0,0.0,0.0,0.0,0.0
0.785,0.0,0.0,0.0,0.2417850523461357,0.0,0.0,0.48243498418527253,0.0,0.0,0.0,0.0,0.0
0.79,0.0,0.0,0.0,-0.11062135813614925,0.0,0.0,0.5066496536755565,0.0,0.0,0.0,0.0,0.0
0.795,0.0,0.0,0.0,-0.07038922285179075,0.0,0.0,0.5013397043319526,0.0,0.0,0.0,0.0,0.0
0.8,0.0,0.0,0.0,-0.1301111947857933,0.0,0.0,0.5199082437859042,0.0,0.0,0.0,0.0,0.0
0.805,0.0,0.0,0.0,0.3891012174453306,0.0,0.0,0.5052356170120859,0.0,0.0,0.0,0.0,0.0
0.81,0.0,0.0,0.0,-0.2645320162880533,0.0,0.0,0.513193921169155,0.0,0.0,0.0,0.0,0.0
0.8150000000000001,0.0,0.0,0.0,-0.23574977034436917,0.0,0.0,0.49759266733151974,0.0,0.0,0.0,0.0,0.0
0.8200000000000001,0.0,0.0,0.0,0.43221441340423283,0.0,0.0,0.4941140513225065,0.0,0.0,0.0,0.0,0.0
0.8250000000000001,0.0,0.0,0.0,-0.16390437048892176,0.0,0.0,0.512639902495056,0.0,0.0,0.0,0.0,0.0
0.8300000000000001,0.0,0.0,0.0,0.26673303532687415,0.0,0.0,0.49620498020122344,0.0,0.0,0.0,0.0,0.0
0.835,0.0,0.0,0.0,0.4164581230943067,0.0,0.0,0.5033745961045402,0.0,0.0,0.0,0.0,0.0
0.84,0.0,0.0,0.0,0.4209748226968349,0.0,0.0,0.503547700573693,0.0,0.0,0.0,0.0,0.0
0.845,0.0,0.0,0.0,1.0059605111343874,0.0,0.0,0.5010344095788809,0.0,0.0,0.0,0.0,0.0
0.85,0.0,0.0,0.0,0.27578175526478993,0.0,0.0,0.5002326516977409,0.0,0.0,0.0,0.0,0.0
0.855,0.0,0.0,0.0,0.7044416034354827,0.0,0.0,0.48531313075130605,0.0,0.0,0.0,0.0,0.0
0.86,0.0,0.0,0.0,-0.09049343641484975,0.0,0.0,0.5119603868134069,0.0,0.0,0.0,0.0,0.0
0.865,0.0,0.0,0.0,0.20048762955322363,0.0,0.0,0.5026108590338914,0.0,0.0,0.0,0.0,0.0
0.87,0.0,0.0,0.0,0.5818075907938945,0.0,0.0,0.5214463922417072,0.0,0.0,0.0,0.0,0.0
0.875,0.0,0.0,0.0,-0.21505908323506578,0.0,0.0,0.5050327593639341,0.0,0.0,0.0,0.0,0.0
0.88,0.0,0.0,0.0,0.0456866846540727,0.0,0.0,0.5004804556936215,0.0,0.0,0.0,0.0,0.0
0.885,0.0,0.0,0.0,0.37753595102715026,0.0,0.0,0.5110138059595568,0.0,0.0,0.0,0.0,0.0
0.89,0.0,0.0,0.0,0.29990688291483264,0.0,0.0,0.49148496786438317,0.0,0.0,0.0,0.0,0.0
0.895,0.0,0.0,0.0,0.09641167171554685,0.0,0.0,0.5013343196807934,0.0,0.0,0.0,0.0,0.0
0.9,0.0,0.0,0.0,-0.12113854969440899,0.0,0.0,0.5059535925283016,0.0,0.0,0.0,0.0,0.0
0.905,0.0,0.0,0.0,-0.13042045141372138,0.0,0.0,0.5077456969218098,0.0,0.0,0.0,0.0,0.0
0.91,0.0,0.0,0.0,0.07350920413672232,0.0,0.0,0.5070209464353328,0.0,0.0,0.0,0.0,0.0
0.915,0.0,0.0,0.0,0.01145499838168744,0.0,0.0,0.49729945605493453,0.0,0.0,0.0,0.0,0.0
0.92,0.0,0.0,0.0,-0.20337060265262052,0.0,0.0,0.5148419222244689,0.0,0.0,0.0,0.0,0.0
0.925,0.0,0.0,0.0,0.30411281850300825,0.0,0.0,0.4736096355786502,0.0,0.0,0.0,0.0,0.0
0.93,0.0,0.0,0.0,0.27171263805216317,0.0,0.0,0.5063302512457529,0.0,0.0,0.0,0.0,0.0
0.935,0.0,0.0,0.0,0.5102340180720054,0.0,0.0,0.5158447930894022,0.0,0.0,0.0,0.0,0.0
0.9400000000000001,0.0,0.0,0.0,-0.36871633861101033,0.0,0.0,0.5040501079941047,0.0,0.0,0.0,0.0,0.0
0.9450000000000001,0.0,0.0,0.0,0.5395494321591947,0.0,0.0,0.4912316571569692,0.0,0.0,0.0,0.0,0.0
0.9500000000000001,0.0,0.0,0.0,0.3293866266385204,0.0,0.0,0.5109686405732023,0.0,0.0,0.0,0.0,0.0
0.9550000000000001,0.0,0.0,0.0,0.46009644471240413,0.0,0.0,0.5148267663870396,0.0,0.0,0.0,0.0,0.0
0.96,0.0,0.0,0.0,-0.05344919611255755,0.0,0.0,0.5086818190399274,0.0,0.0,0.0,0.0,0.0
0.965,0.0,0.0,0.0,0.15602049084087197,0.0,0.0,0.5090235445397673,0.0,0.0,0.0,0.0,0.0
0.97,0.0,0.0,0.0,-0.03601557415483019,0.0,0.0,0.4867117556776015,0.0,0.0,0.0,0.0,0.0
0.975,0.0,0.0,0.0,0.9118449013890023,0.0,0.0,0.49815838467762336,0.0,0.0,0.0,0.0,0.0
0.98,0.0,0.0,0.0,-0.020795488576176503,0.0,0.0,0.5109472814001935,0.0,0.0,0.0,0.0,0.0
0.985,0.0,0.0,0.0,0.6430174606098421,0.0,0.0,0.5053492161178563,0.0,0.0,0.0,0.0,0.0
0.99,0.0,0.0,0.0,-0.19556141414205974,0.0,0.0,0.49923846666832095,0.0,0.0,0.0,0.0,0.0
0.995,0.0,0.0,0.0,0.4907029264022067,0.0,0.0,0.5199014598055818,0.0,0.0,0.0,0.0,0.0
1.0,0.0,0.0,0.0,0.20359346776655013,0.0,0.0,0.5073106447858231,0.0,0.0,0.0,0.0,0.0
1.0050000000000001,0.0,0.0,0.0,0.7637044468379546,0.0,0.0,0.49732711301847976,0.0,0.0,0.0,0.0,0.0
1.01,0.0,0.0,0.0,0.30248039719524183,0.0,0.0,0.48539172745940207,0.0,0.0,0.0,0.0,0.0
1.0150000000000001,0.0,0.0,0.0,0.35011448437571635,0.0,0.0,0.4888993835639106,0.0,0.0,0.0,0.0,0.0
1.02,0.0,0.0,0.0,0.23437714689558292,0.0,0.0,0.49651524628098637,0.0,0.0,0.0,0.0,0.0
1.025,0.0,0.0,0.0,0.27453209339082535,0.0,0.0,0.5106488609179707,0.0,0.0,0.0,0.0,0.0
1.03,0.0,0.0,0.0,0.42901822907364007,0.0,0.0,0.5055781083807724,0.0,0.0,0.0,0.0,0.0
1.035,0.0,0.0,0.0,0.3101556885405175,0.0,0.0,0.4916665893826747,0.0,0.0,0.0,0.0,0.0
1.04,0.0,0.0,0.0,0.5207827306284036,0.0,0.0,0.499090291354119,0.0,0.0,0.0,0.0,0.0
1.045,0.0,0.0,0.0,0.433843396993221,0.0,0.0,0.5042740350792053,0.0,0.0,0.0,0.0,0.0
1.05,0.0,0.0,0.0,0.4859800209021795,0.0,0.0,0.5032067316547599,0.0,0.0,0.0,0.0,0.0
1.055,0.0,0.0,0.0,0.4282364995744571,0.0,0.0,0.5299593637124246,0.0,0.0,0.0,0.0,0.0
1.06,0.0,0.0,0.0,0.120881797264832,0.0,0.0,0.49029386779685935,0.0,0.0,0.0,0.0,0.0
1.065,0.0,0.0,0.0,0.4535681544605888,0.0,0.0,0.5025752344866823,0.0,0.0,0.0,0.0,0.0
1.07,0.0,0.0,0.0,-0.21515477275676403,0.0,0.0,0.47973271023325553,0.0,0.0,0.0,0.0,0.0
1.075,0.0,0.0,0.0,-0.189914682183469,0.0,0.0,0.491357722944858,0.0,0.0,0.0,0.0,0.0
1.08,0.0,0.0,0.0,0.2451274903058917,0.0,0.0,0.4991678189562207,0.0,0.0,0.0,0.0,0.0
1.085,0.0,0.0,0.0,0.8593674205302182,0.0,0.0,0.5060293739099813,0.0,0.0,0.0,0.0,0.0
1.09,0.0,0.0,0.0,0.4821615464279427,0.0,0.0,0.5062613459765016,0.0,0.0,0.0,0.0,0.0
1.095,0.0,0.0,0.0,-0.03480725084138462,0.0,0.0,0.49364530756127045,0.0,0.0,0.0,0.0,0.0
1.1,0.0,0.0,0.0,0.02563286691928845,0.0,0.0,0.5010369191253352,0.0,0.0,0.0,0.0,0.0
1.105,0.0,0.0,0.0,-0.04853282013035488,0.0,0.0,0.4909094677958751,0.0,0.0,0.0,0.0,0.0
1.11,0.0,0.0,0.0,0.4798910997165515,0.0,0.0,0.49874563130650446,0.0,0.0,0.0,0.0,0.0
1.115,0.0,0.0,0.0,0.10863297137602301,0.0,0.0,0.49594162215344206,0.0,0.0,0.0,0.0,0.0
1.12,0.0,0.0,0.0,0.18544525821222813,0.0,0.0,0.4916454378525853,0.0,0.0,0.0,0.0,0.0
1.125,0.0,0.0,0.0,0.610173855685558,0.0,0.0,0.5152221512043137,0.0,0.0,0.0,0.0,0.0
1.1300000000000001,0.0,0.0,0.0,0.7223048358980184,0.0,0.0,0.4904040633031468,0.0,0.0,0.0,0.0,0.0
1.135,0.0,0.0,0.0,0.4357864043288266,0.0,0.0,0.49300200853285675,0.0,0.0,0.0,0.0,0.0
1.1400000000000001,0.0,0.0,0.0,0.7746791096795234,0.0,0.0,0.47764991738026996,0.0,0.0,0.0,0.0,0.0
1.145,0.0,0.0,0.0,0.8234633743160862,0.0,0.0,0.5022443596871613,0.0,0.0,0.0,0.0,0.0
1.1500000000000001,0.0,0.0,0.0,0.4491099797972876,0.0,0.0,0.5018933668834852,0.0,0.0,0.0,0.0,0.0
1.155,0.0,0.0,0.0,0.029399651567573484,0.0,0.0,0.4820772799589068,0.0,0.0,0.0,0.0,0.0
1.16,0.0,0.0,0.0,0.04745713779253741,0.0,0.0,0.4836634428197508,0.0,0.0,0.0,0.0,0.0
1.165,0.0,0.0,0.0,0.3583093915565165,0.0,0.0,0.5092741208035404,0.0,0.0,0.0,0.0,0.0
1.17,0.0,0.0,0.0,0.684654626568562,0.0,0.0,0.48083226016056224,0.0,0.0,0.0,0.0,0.0
1.175,0.0,0.0,0.0,0.6337181258189214,0.0,0.0,0.5012750250309205,0.0,0.0,0.0,0.0,0.0
1.18,0.0,0.0,0.0,0.24977674094889235,0.0,0.0,0.5105664348695456,0.0,0.0,0.0,0.0,0.0
1.185,0.0,0.0,0.0,0.3770410167008156,0.0,0.0,0.49733352683527654,0.0,0.0,0.0,0.0,0.0
1.19,0.0,0.0,0.0,0.459181278103413,0.0,0.0,0.5117237902869471,0.0,0.0,0.0,0.0,0.0
1.195,0.0,0.0,0.0,0.4963943817744187,0.0,0.0,0.4941364649589511,0.0,0.0,0.0,0.0,0.0
1.2,0.0,0.0,0.0,-0.18141498469833753,0.0,0.0,0.49615638928028655,0.0,0.0,0.0,0.0,0.0
1.205,0.0,0.0,0.0,1.0359507566667026,0.0,0.0,0.49819112688675454,0.0,0.0,0.0,0.0,0.0
1.21,0.0,0.0,0.0,0.44574216550950574,0.0,0.0,0.5021740994528764,0.0,0.0,0.0,0.0,0.0
1.215,0.0,0.0,0.0,0.32619744571942905,0.0,0.0,0.4941464072611798,0.0,0.0,0.0,0.0,0.0
1.22,0.0,0.0,0.0,0.47319834791433235,0.0,0.0,0.4948300675535578,0.0,0.0,0.0,0.0,0.0
1.225,0.0,0.0,0.0,0.1415117844134131,0.0,0.0,0.5068526452602059,0.0,0.0,0.0,0.0,0.0
1.23,0.0,0.0,0.0,0.6885595755025782,0.0,0.0,0.5040427588335967,0.0,0.0,0.0,0.0,0.0
1.235,0.0,0.0,0.0,0.6954985556103399,0.0,0.0,0.49784171017552753,0.0,0.0,0.0,0.0,0.0
1.24,0.0,0.0,0.0,0.19550557290769865,0.0,0.0,0.49667744121710183,0.0,0.0,0.0,0.0,0.0
1.245,0.0,0.0,0.0,-0.03959292697443755,0.0,0.0,0.5075471520708797,0.0,0.0,0.0,0.0,0.0
1.25,0.0,0.0,0.0,-0.42120974931216865,0.0,0.0,0.5120339902967473,0.0,0.0,0.0,0.0,0.0
1.2550000000000001,0.0,0.0,0.0,0.6621127093858704,0.0,0.0,0.49991051649204105,0.0,0.0,0.0,0.0,0.0
1.26,0.0,0.0,0.0,0.6161760085934457,0.0,0.0,0.4892860529071756,0.0,0.0,0.0,0.0,0.0
1.2650000000000001,0.0,0.0,0.0,0.013654314943116131,0.0,0.0,0.4959845992950315,0.0,0.0,0.0,0.0,0.0
1.27,0.0,0.0,0.0,0.1014584558113286,0.0,0.0,0.4800387570125956,0.0,0.0,0.0,0.0,0.0
1.2750000000000001,0.0,0.0,0.0,0.4363144050948916,0.0,0.0,0.4964956404277472,0.0,0.0,0.0,0.0,0.0
1.28,0.0,0.0,0.0,0.09911101330092395,0.0,0.0,0.49660718357403,0.0,0.0,0.0,0.0,0.0
1.285,0.0,0.0,0.0,0.4990774618460196,0.0,0.0,0.5057112301603608,0.0,0.0,0.0,0.0,0.0
1.29,0.0,0.0,0.0,0.6438324203375274,0.0,0.0,0.5010309221713709,0.0,0.0,0.0,0.0,0.0
1.295,0.0,0.0,0.0,0.10775619623568708,0.0,0.0,0.48648375012318507,0.0,0.0,0.0,0.0,0.0
1.3,0.0,0.0,0.0,0.4016757642820627,0.0,0.0,0.49602321986674563,0.0,0.0,0.0,0.0,0.0
1.305,0.0,0.0,0.0,0.3825942647156154,0.0,0.0,0.4897652560134043,0.0,0.0,0.0,0.0,0.0
1.31,0.0,0.0,0.0,0.4802279355201197,0.0,0.0,0.489324103463394,0.0,0.0,0.0,0.0,0.0
1.315,0.0,0.0,0.0,0.7914515482441,0.0,0.0,0.4858837060702805,0.0,0.0,0.0,0.0,0.0
1.32,0.0,0.0,0.0,0.34143498001822653,0.0,0.0,0.5095380344845902,0.0,0.0,0.0,0.0,0.0
1.325,0.0,0.0,0.0,1.0883862973802938,0.0,0.0,0.5074986167158975,0.0,0.0,0.0,0.0,0.0
1.33,0.0,0.0,0.0,0.6961798810513729,0.0,0.0,0.48969734691875083,0.0,0.0,0.0,0.0,0.0
1.335,0.0,0.0,0.0,0.5114830842034184,0.0,0.0,0.48433719097861155,0.0,0.0,0.0,0.0,0.0
1.34,0.0,0.0,0.0,0.4350914394650518,0.0,0.0,0.5077533317370247,0.0,0.0,0.0,0.0,0.0
1.345,0.0,0.0,0.0,0.44036237687809016,0.0,0.0,0.5049047957751052,0.0,0.0,0.0,0.0,0.0
1.35,0.0,0.0,0.0,0.4311350592125746,0.0,0.0,0.5035027511527685,0.0,0.0,0.0,0.0,0.0
1.355,0.0,0.0,0.0,0.7257994293263283,0.0,0.0,0.5055175196750582,0.0,0.0,0.0,0.0,0.0
1.36,0.0,0.0,0.0,0.28667819926012217,0.0,0.0,0.5096128536514344,0.0,0.0,0.0,0.0,0.0
1.365,0.0,0.0,0.0,0.3799626154224727,0.0,0.0,0.5028654673602925,0.0,0.0,0.0,0.0,0.0
1.37,0.0,0.0,0.0,0.5636229835832449,0.0,0.0,0.5022050818895278,0.0,0.0,0.0,0.0,0.0
1.375,0.0,0.0,0.0,0.18118450009753498,0.0,0.0,0.5100857538108285,0.0,0.0,0.0,0.0,0.0
1.3800000000000001,0.0,0.0,0.0,1.0106821930373253,0.0,0.0,0.5084212587919581,0.0,0.0,0.0,0.0,0.0
1.385,0.0,0.0,0.0,0.3393512985594315,0.0,0.0,0.5262409464896387,0.0,0.0,0.0,0.0,0.0
1.3900000000000001,0.0,0.0,0.0,0.7319925345724939,0.0,0.0,0.499239289673607,0.0,0.0,0.0,0.0,0.0
1.395,0.0,0.0,0.0,0.8300979756805408,0.0,0.0,0.4934267965619337,0.0,0.0,0.0,0.0,0.0
1.4000000000000001,0.0,0.0,0.0,0.22794864577806237,0.0,0.0,0.511181188989239,0.0,0.0,0.0,0.0,0.0
1.405,0.0,0.0,0.0,0.3236979689228227,0.0,0.0,0.49835014587200116,0.0,0.0,0.0,0.0,0.0
1.41,0.0,0.0,0.0,0.2630972334513018,0.0,0.0,0.48550982251392977,0.0,0.0,0.0,0.0,0.0
1.415,0.0,0.0,0.0,0.47775592205375056,0.0,0.0,0.49401849717111723,0.0,0.0,0.0,0.0,0.0
1.42,0.0,0.0,0.0,1.2135189050883486,0.0,0.0,0.5181148194400114,0.0,0.0,0.0,0.0,0.0
1.425,0.0,0.0,0.0,0.29571714092489015,0.0,0.0,0.502781097751209,0.0,0.0,0.0,0.0,0.0
1.43,0.0,0.0,0.0,0.503299428184271,0.0,0.0,0.5067001662617441,0.0,0.0,0.0,0.0,0.0
1.435,0.0,0.0,0.0,0.3418291473199596,0.0,0.0,0.4904260136801198,0.0,0.0,0.0,0.0,0.0
1.44,0.0,0.0,0.0,0.9696629514656436,0.0,0.0,0.5110685188105697,0.0,0.0,0.0,0.0,0.0
1.445,0.0,0.0,0.0,0.8035660023455382,0.0,0.0,0.4980685234596331,0.0,0.0,0.0,0.0,0.0
1.45,0.0,0.0,0.0,0.3590858784618959,0.0,0.0,0.5001589298499322,0.0,0.0,0.0,0.0,0.0
1.455,0.0,0.0,0.0,0.5824512541124027,0.0,0.0,0.5106269861893568,0.0,0.0,0.0,0.0,0.0
1.46,0.0,0.0,0.0,0.5964912921222244,0.0,0.0,0.482677096157332,0.0,0.0,0.0,0.0,0.0
1.465,0.0,0.0,0.0,0.16895191335736745,0.0,0.0,0.5031974255465567,0.0,0.0,0.0,0.0,0.0
1.47,0.0,0.0,0.0,0.05539739511248132,0.0,0.0,0.49079494128246254,0.0,0.0,0.0,0.0,0.0
1.475,0.0,0.0,0.0,0.22457962142541218,0.0,0.0,0.5037490983844922,0.0,0.0,0.0,0.0,0.0
1.48,0.0,0.0,0.0,1.0742048443991936,0.0,0.0,0.49519604812942325,0.0,0.0,0.0,0.0,0.0
1.485,0.0,0.0,0.0,0.8735986180688466,0.0,0.0,0.5122540864695457,0.0,0.0,0.0,0.0,0.0
1.49,0.0,0.0,0.0,0.3989339982082996,0.0,0.0,0.4985409560531636,0.0,0.0,0.0,0.0,0.0
1.495,0.0,0.0,0.0,0.6331963794270121,0.0,0.0,0.5024217334362443,0.0,0.0,0.0,0.0,0.0
1.5,0.0,0.0,0.0,0.09811005015066031,0.0,0.0,0.4964696319302998,0.0,0.0,0.0,0.0,0.0
1.5050000000000001,0.0,0.0,0.0,0.7847492965575505,0.0,0.0,0.48823802307584735,0.0,0.0,0.0,0.0,0.0
1.51,0.0,0.0,0.0,1.112241013573742,0.0,0.0,0.4846416320852601,0.0,0.0,0.0,0.0,0.0
1.5150000000000001,0.0,0.0,0.0,1.070514191656749,0.0,0.0,0.5070218737214177,0.0,0.0,0.0,0.0,0.0
1.52,0.0,0.0,0.0,1.0567883279594108,0.0,0.0,0.5020836571403532,0.0,0.0,0.0,0.0,0.0
1.5250000000000001,0.0,0.0,0.0,0.10979056640225023,0.0,0.0,0.5056661050042482,0.0,0.0,0.0,0.0,0.0
1.53,0.0,0.0,0.0,0.2619395064176994,0.0,0.0,0.4984483748226315,0.0,0.0,0.0,0.0,0.0
1.5350000000000001,0.0,0.0,0.0,0.9850628644115117,0.0,0.0,0.5067353178603855,0.0,0.0,0.0,0.0,0.0
1.54,0.0,0.0,0.0,0.3319314126976403,0.0,0.0,0.5139755070916874,0.0,0.0,0.0,0.0,0.0
1.545,0.0,0.0,0.0,0.25602980176498474,0.0,0.0,0.5016644753658248,0.0,0.0,0.0,0.0,0.0
1.55,0.0,0.0,0.0,0.8341455063276876,0.0,0.0,0.5001856800205351,0.0,0.0,0.0,0.0,0.0
1.555,0.0,0.0,0.0,0.4120546485488638,0.0,0.0,0.4909659110598739,0.0,0.0,0.0,0.0,0.0
1.56,0.0,0.0,0.0,0.7321918011758586,0.0,0.0,0.4960113797257765,0.0,0.0,0.0,0.0,0.0
1.565,0.0,0.0,0.0,0.611857545073241,0.0,0.0,0.5307192133615419,0.0,0.0,0.0,0.0,0.0
1.57,0.0,0.0,0.0,0.5002373380605384,0.0,0.0,0.5018907146279004,0.0,0.0,0.0,0.0,0.0
1.575,0.0,0.0,0.0,0.7052389221303996,0.0,0.0,0.4879818400848607,0.0,0.0,0.0,0.0,0.0
1.58,0.0,0.0,0.0,1.1495565179481908,0.0,0.0,0.5025855198091898,0.0,0.0,0.0,0.0,0.0
1.585,0.0,0.0,0.0,0.8173874523191188,0.0,0.0,0.5134467231699549,0.0,0.0,0.0,0.0,0.0
1.59,0.0,0.0,0.0,0.7562582327291416,0.0,0.0,0.5074187620599195,0.0,0.0,0.0,0.0,0.0
1.595,0.0,0.0,0.0,0.7273878143242678,0.0,0.0,0.49867298486999256,0.0,0.0,0.0,0.0,0.0
1.6,0.0,0.0,0.0,0.5223478697921337,0.0,0.0,0.4889704787649857,0.0,0.0,0.0,0.0,0.0
1.605,0.0,0.0,0.0,0.23515891771901204,0.0,0.0,0.48549732975859217,0.0,0.0,0.0,0.0,0.0
1.61,0.0,0.0,0.0,0.0019029627696351102,0.0,0.0,0.4848588669414344,0.0,0.0,0.0,0.0,0.0
1.615,0.0,0.0,0.0,0.412209558093431,0.0,0.0,0.5033355454759161,0.0,0.0,0.0,0.0,0.0
1.62,0.0,0.0,0.0,0.7127417761491681,0.0,0.0,0.485236474794517,0.0,0.0,0.0,0.0,0.0
1.625,0.0,0.0,0.0,0.8003061826199344,0.0,0.0,0.4982875041346554,0.0,0.0,0.0,0.0,0.0
1.6300000000000001,0.0,0.0,0.0,0.36122141938952423,0.0,0.0,0.5025676326994493,0.0,0.0,0.0,0.0,0.0
1.635,0.0,0.0,0.0,1.0723260083019974,0.0,0.0,0.4970030323851084,0.0,0.0,0.0,0.0,0.0
1.6400000000000001,0.0,0.0,0.0,0.9068568367375707,0.0,0.0,0.5003773657496858,0.0,0.0,0.0,0.0,0.0
1.645,0.0,0.0,0.0,0.6476927790731005,0.0,0.0,0.4982196302443704,0.0,0.0,0.0,0.0,0.0
1.6500000000000001,0.0,0.0,0.0,0.4462870331235015,0.0,0.0,0.49516836041966356,0.0,0.0,0.0,0.0,0.0
1.655,0.0,0.0,0.0,1.025738333363521,0.0,0.0,0.4972310008043895,0.0,0.0,0.0,0.0,0.0
1.6600000000000001,0.0,0.0,0.0,0.803968590842727,0.0,0.0,0.5168398057707629,0.0,0.0,0.0,0.0,0.0
1.665,0.0,0.0,0.0,0.5129595631925989,0.0,0.0,0.4951262787915327,0.0,0.0,0.0,0.0,0.0
1.67,0.0,0.0,0.0,0.43502026412978007,0.0,0.0,0.5018840194826006,0.0,0.0,0.0,0.0,0.0
1.675,0.0,0.0,0.0,0.40050058562101676,0.0,0.0,0.5008245426067115,0.0,0.0,0.0,0.0,0.0
1.68,0.0,0.0,0.0,0.6470495342834224,0.0,0.0,0.498243242911496,0.0,0.0,0.0,0.0,0.0
1.685,0.0,0.0,0.0,0.4401836834707403,0.0,0.0,0.5047676973490935,0.0,0.0,0.0,0.0,0.0
1.69,0.0,0.0,0.0,0.7510401083456342,0.0,0.0,0.48803406074071526,0.0,0.0,0.0,0.0,0.0
1.695,0.0,0.0,0.0,0.6105220282056624,0.0,0.0,0.5072405140376511,0.0,0.0,0.0,0.0,0.0
1.7,0.0,0.0,0.0,0.9868217801803435,0.0,0.0,0.49991155533946113,0.0,0.0,0.0,0.0,0.0
1.705,0.0,0.0,0.0,0.7462037713116844,0.0,0.0,0.5011347596717948,0.0,0.0,0.0,0.0,0.0
1.71,0.0,0.0,0.0,0.6598296442416987,0.0,0.0,0.5082400180515981,0.0,0.0,0.0,0.0,0.0
1.715,0.0,0.0,0.0,1.0313380560419394,0.0,0.0,0.49623111259420283,0.0,0.0,0.0,0.0,0.0
1.72,0.0,0.0,0.0,0.35744409197493393,0.0,0.0,0.48675506045776945,0.0,0.0,0.0,0.0,0.0
1.725,0.0,0.0,0.0,0.4729750441603305,0.0,0.0,0.5045487873047269,0.0,0.0,0.0,0.0,0.0
1.73,0.0,0.0,0.0,0.5903777148933467,0.0,0.0,0.47891164412753207,0.0,0.0,0.0,0.0,0.0
1.735,0.0,0.0,0.0,0.9991992620475632,0.0,0.0,0.4825403475200755,0.0,0.0,0.0,0.0,0.0
1.74,0.0,0.0,0.0,0.47848965773251956,0.0,0.0,0.4967064030296385,0.0,0.0,0.0,0.0,0.0
1.745,0.0,0.0,0.0,0.8999719127283341,0.0,0.0,0.49088862663696653,0.0,0.0,0.0,0.0,0.0
1.75,0.0,0.0,0.0,0.778905257118483,0.0,0.0,0.49919163747013934,0.0,0.0,0.0,0.0,0.0
1.7550000000000001,0.0,0.0,0.0,0.5616558751212785,0.0,0.0,0.47572898710159633,0.0,0.0,0.0,0.0,0.0
1.76,0.0,0.0,0.0,0.12249962040104247,0.0,0.0,0.4869425506403699,0.0,0.0,0.0,0.0,0.0
1.7650000000000001,0.0,0.0,0.0,1.1073605941977398,0.0,0.0,0.523891226164704,0.0,0.0,0.0,0.0,0.0
1.77,0.0,0.0,0.0,0.7490319519999746,0.0,0.0,0.49459480629095076,0.0,0.0,0.0,0.0,0.0
1.7750000000000001,0.0,0.0,0.0,0.9705523125512135,0.0,0.0,0.48824419724392754,0.0,0.0,0.0,0.0,0.0
1.78,0.0,0.0,0.0,0.837588743109288,0.0,0.0,0.516690574827195,0.0,0.0,0.0,0.0,0.0
1.7850000000000001,0.0,0.0,0.0,1.3019422540256536,0.0,0.0,0.5117411693437451,0.0,0.0,0.0,0.0,0.0
1.79,0.0,0.0,0.0,0.6071431299039511,0.0,0.0,0.5032632179398182,0.0,0.0,0.0,0.0,0.0
1.795,0.0,0.0,0.0,0.8526649702650957,0.0,0.0,0.5065917032385727,0.0,0.0,0.0,0.0,0.0
1.8,0.0,0.0,0.0,1.1617253177145652,0.0,0.0,0.496186498470629,0.0,0.0,0.0,0.0,0.0
1.805,0.0,0.0,0.0,0.9008838632626256,0.0,0.0,0.4958126873916552,0.0,0.0,0.0,0.0,0.0
1.81,0.0,0.0,0.0,0.6895366322807797,0.0,0.0,0.4980662034819665,0.0,0.0,0.0,0.0,0.0
1.815,0.0,0.0,0.0,0.7527432294068392,0.0,0.0,0.5046935539789175,0.0,0.0,0.0,0.0,0.0
1.82,0.0,0.0,0.0,0.7524377883936401,0.0,0.0,0.4944628500489453,0.0,0.0,0.0,0.0,0.0
1.825,0.0,0.0,0.0,0.7429676282668563,0.0,0.0,0.4978398617496098,0.0,0.0,0.0,0.0,0.0
1.83,0.0,0.0,0.0,0.7174650643781715,0.0,0.0,0.49896305786823997,0.0,0.0,0.0,0.0,0.0
1.835,0.0,0.0,0.0,1.6672120428481256,0.0,0.0,0.49167339005904315,0.0,0.0,0.0,0.0,0.0
1.84,0.0,0.0,0.0,0.888782652832254,0.0,0.0,0.48911707749488514,0.0,0.0,0.0,0.0,0.0
1.845,0.0,0.0,0.0,1.0479244874193452,0.0,0.0,0.49549250531217837,0.0,0.0,0.0,0.0,0.0
1.85,0.0,0.0,0.0,1.0470929695580946,0.0,0.0,0.4916213256075359,0.0,0.0,0.0,0.0,0.0
1.855,0.0,0.0,0.0,-0.22062376652189708,0.0,0.0,0.5130404788508608,0.0,0.0,0.0,0.0,0.0
1.86,0.0,0.0,0.0,0.8685831362044379,0.0,0.0,0.4954574836643656,0.0,0.0,0.0,0.0,0.0
1.865,0.0,0.0,0.0,0.8991564240327125,0.0,0.0,0.5157367753400738,0.0,0.0,0.0,0.0,0.0
1.87,0.0,0.0,0.0,0.3094984539277315,0.0,0.0,0.5017445092291014,0.0,0.0,0.0,0.0,0.0
1.875,0.0,0.0,0.0,1.1061037499413715,0.0,0.0,0.4867182055201966,0.0,0.0,0.0,0.0,0.0
1.8800000000000001,0.0,0.0,0.0,0.6620435574153726,0.0,0.0,0.48351168689710744,0.0,0.0,0.0,0.0,0.0
1.885,0.0,0.0,0.0,0.8735601504003897,0.0,0.0,0.4804391776447817,0.0,0.0,0.0,0.0,0.0
1.8900000000000001,0.0,0.0,0.0,0.711619359571355,0.0,0.0,0.4793473775765598,0.0,0.0,0.0,0.0,0.0
1.895,0.0,0.0,0.0,0.3382288637336246,0.0,0.0,0.4919370790419636,0.0,0.0,0.0,0.0,0.0
1.9000000000000001,0.0,0.0,0.0,1.204455856130823,0.0,0.0,0.502248966528152,0.0,0.0,0.0,0.0,0.0
1.905,0.0,0.0,0.0,0.682126962614129,0.0,0.0,0.4966264547452061,0.0,0.0,0.0,0.0,0.0
1.9100000000000001,0.0,0.0,0.0,0.8878010604691334,0.0,0.0,0.5081689642649729,0.0,0.0,0.0,0.0,0.0
1.915,0.0,0.0,0.0,0.15927679438803136,0.0,0.0,0.49813683971464123,0.0,0.0,0.0,0.0,0.0
1.92,0.0,0.0,0.0,1.1250522344090879,0.0,0.0,0.5083520810688376,0.0,0.0,0.0,0.0,0.0
1.925,0.0,0.0,0.0,0.7807638922550685,0.0,0.0,0.5034661199565714,0.0,0.0,0.0,0.0,0.0
1.93,0.0,0.0,0.0,0.3940686026644799,0.0,0.0,0.4947630360140019,0.0,0.0,0.0,0.0,0.0
1.935,0.0,0.0,0.0,1.3782947715558664,0.0,0.0,0.510223249323979,0.0,0.0,0.0,0.0,0.0
1.94,0.0,0.0,0.0,0.6662587163983303,0.0,0.0,0.5018060517301456,0.0,0.0,0.0,0.0,0.0
1.945,0.0,0.0,0.0,1.2663956294769896,0.0,0.0,0.49847880004218276,0.0,0.0,0.0,0.0,0.0
1.95,0.0,0.0,0.0,0.08942824156471504,0.0,0.0,0.5142561607635541,0.0,0.0,0.0,0.0,0.0
1.955,0.0,0.0,0.0,0.8625096578587939,0.0,0.0,0.5110761235599028,0.0,0.0,0.0,0.0,0.0
1.96,0.0,0.0,0.0,0.8941999923745756,0.0,0.0,0.4992318214509016,0.0,0.0,0.0,0.0,0.0
1.965,0.0,0.0,0.0,0.4862823902640552,0.0,0.0,0.49904706972684937,0.0,0.0,0.0,0.0,0.0
1.97,0.0,0.0,0.0,0.62153529035797,0.0,0.0,0.5062305428183064,0.0,0.0,0.0,0.0,0.0
1.975,0.0,0.0,0.0,0.7728080603925312,0.0,0.0,0.49649869273988606,0.0,0.0,0.0,0.0,0.0
1.98,0.0,0.0,0.0,1.5036806843789519,0.0,0.0,0.4778802433193703,0.0,0.0,0.0,0.0,0.0
1.985,0.0,0.0,0.0,0.8938947698632365,0.0,0.0,0.4814563057408091,0.0,0.0,0.0,0.0,0.0
1.99,0.0,0.0,0.0,0.9648818928363658,0.0,0.0,0.5009203835900309,0.0,0.0,0.0,0.0,0.0
1.995,0.0,0.0,0.0,0.7171519768230243,0.0,0.0,0.5097987588704661,0.0,0.0,0.0,0.0,0.0
2.0,0.0,0.0,0.0,1.119280123600182,0.0,0.0,0.5017175590069696,0.0,0.0,0.0,0.0,0.0
2.005,0.0,0.0,0.0,1.428312535070033,0.0,0.0,0.49489723966671606,0.0,0.0,0.0,0.0,0.0
2.0100000000000002,0.0,0.0,0.0,0.3937654215293683,0.0,0.0,0.489901949009719,0.0,0.0,0.0,0.0,0.0
2.015,0.0,0.0,0.0,0.7393845514170411,0.0,0.0,0.49666537580610365,0.0,0.0,0.0,0.0,0.0
2.02,0.0,0.0,0.0,0.8817191423514034,0.0,0.0,0.4845413116735389,0.0,0.0,0.0,0.0,0.0
2.025,0.0,0.0,0.0,1.1618510498055452,0.0,0.0,0.5089464898580404,0.0,0.0,0.0,0.0,0.0
2.0300000000000002,0.0,0.0,0.0,0.8498863731110194,0.0,0.0,0.4937802848589783,0.0,0.0,0.0,0.0,0.0
2.035,0.0,0.0,0.0,1.1193448280427856,0.0,0.0,0.4996639383791026,0.0,0.0,0.0,0.0,0.0
2.04,0.0,0.0,0.0,1.0609963244926723,0.0,0.0,0.5113312735722959,0.0,0.0,0.0,0.0,0.0
2.045,0.0,0.0,0.0,1.0369553625119161,0.0,0.0,0.5096302370334881,0.0,0.0,0.0,0.0,0.0
2.05,0.0,0.0,0.0,0.976828295746804,0.0,0.0,0.5161250819152953,0.0,0.0,0.0,0.0,0.0
2.055,0.0,0.0,0.0,1.0150381242257778,0.0,0.0,0.5021505654068534,0.0,0.0,0.0,0.0,0.0
2.06,0.0,0.0,0.0,1.1052124006861803,0.0,0.0,0.5017920453052722,0.0,0.0,0.0,0.0,0.0
2.065,0.0,0.0,0.0,1.699747693443391,0.0,0.0,0.48311648143624464,0.0,0.0,0.0,0.0,0.0
2.07,0.0,0.0,0.0,1.3323129017479187,0.0,0.0,0.5149656231974604,0.0,0.0,0.0,0.0,0.0
2.075,0.0,0.0,0.0,0.8922032360471145,0.0,0.0,0.5091888217682926,0.0,0.0,0.0,0.0,0.0
2.08,0.0,0.0,0.0,1.3780145961841206,0.0,0.0,0.514490080386602,0.0,0.0,0.0,0.0,0.0
2.085,0.0,0.0,0.0,0.896473385016941,0.0,0.0,0.4913828745830348,0.0,0.0,0.0,0.0,0.0
2.09,0.0,0.0,0.0,0.7400033672097903,0.0,0.0,0.4964717206202542,0.0,0.0,0.0,0.0,0.0
2.095,0.0,0.0,0.0,1.1036292842257132,0.0,0.0,0.5027718254776488,0.0,0.0,0.0,0.0,0.0
2.1,0.0,0.0,0.0,1.3527510294254268,0.0,0.0,0.5082847759182344,0.0,0.0,0.0,0.0,0.0
2.105,0.0,0.0,0.0,1.2652515856920417,0.0,0.0,0.48764286172447324,0.0,0.0,0.0,0.0,0.0
2.11,0.0,0.0,0.0,1.227791313682216,0.0,0.0,0.5047767477088848,0.0,0.0,0.0,0.0,0.0
2.115,0.0,0.0,0.0,1.0561745612556448,0.0,0.0,0.48910558950101624,0.0,0.0,0.0,0.0,0.0
2.12,0.0,0.0,0.0,0.9938746615918105,0.0,0.0,0.500138531044698,0.0,0.0,0.0,0.0,0.0
2.125,0.0,0.0,0.0,1.6658305283839343,0.0,0.0,0.4829706894957965,0.0,0.0,0.0,0.0,0.0
2.13,0.0,0.0,0.0,1.0376341043290553,0.0,0.0,0.5080996238782443,0.0,0.0,0.0,0.0,0.0
2.1350000000000002,0.0,0.0,0.0,0.9910838071699466,0.0,0.0,0.49186313340527127,0.0,0.0,0.0,0.0,0.0
2.14,0.0,0.0,0.0,0.8895822764700876,0.0,0.0,0.5028967092337997,0.0,0.0,0.0,0.0,0.0
2.145,0.0,0.0,0.0,0.595445569226782,0.0,0.0,0.5109241454621194,0.0,0.0,0.0,0.0,0.0
2.15,0.0,0.0,0.0,1.1030534370814993,0.0,0.0,0.4943692030292728,0.0,0.0,0.0,0.0,0.0
2.1550000000000002,0.0,0.0,0.0,1.44347951621845,0.0,0.0,0.501381775217366,0.0,0.0,0.0,0.0,0.0
2.16,0.0,0.0,0.0,0.5678478142276026,0.0,0.0,0.5025290493158788,0.0,0.0,0.0,0.0,0.0
2.165,0.0,0.0,0.0,1.107828307085995,0.0,0.0,0.4775960206625923,0.0,0.0,0.0,0.0,0.0
2.17,0.0,0.0,0.0,1.5552359447923745,0.0,0.0,0.49297369345691944,0.0,0.0,0.0,0.0,0.0
2.1750000000000003,0.0,0.0,0.0,1.2669005869344274,0.0,0.0,0.4922670304782145,0.0,0.0,0.0,0.0,0.0
2.18,0.0,0.0,0.0,0.7883862722858825,0.0,0.0,0.4918456953593301,0.0,0.0,0.0,0.0,0.0
2.185,0.0,0.0,0.0,1.101344198671964,0.0,0.0,0.49794818044565053,0.0,0.0,0.0,0.0,0.0
2.19,0.0,0.0,0.0,1.643551252266944,0.0,0.0,0.4915005366208053,0.0,0.0,0.0,0.0,0.0
2.195,0.0,0.0,0.0,1.0410533845843337,0.0,0.0,0.49388106307968205,0.0,0.0,0.0,0.0,0.0
2.2,0.0,0.0,0.0,1.395711476293371,0.0,0.0,0.5101569572959662,0.0,0.0,0.0,0.0,0.0
2.205,0.0,0.0,0.0,1.2433405552540617,0.0,0.0,0.5011093298313468,0.0,0.0,0.0,0.0,0.0
2.21,0.0,0.0,0.0,1.2120141335494776,0.0,0.0,0.49712731236705654,0.0,0.0,0.0,0.0,0.0
2.215,0.0,0.0,0.0,1.1293284489021718,0.0,0.0,0.5104982116668286,0.0,0.0,0.0,0.0,0.0
2.22,0.0,0.0,0.0,1.3171464706260112,0.0,0.0,0.4981500317891078,0.0,0.0,0.0,0.0,0.0
2.225,0.0,0.0,0.0,0.637110105970734,0.0,0.0,0.5068853237915918,0.0,0.0,0.0,0.0,0.0
2.23,0.0,0.0,0.0,0.809606086602649,0.0,0.0,0.5154577684464486,0.0,0.0,0.0,0.0,0.0
2.235,0.0,0.0,0.0,1.6626292930823672,0.0,0.0,0.49413250287202526,0.0,0.0,0.0,0.0,0.0
2.24,0.0,0.0,0.0,1.3042932330497476,0.0,0.0,0.4982344621746587,0.0,0.0,0.0,0.0,0.0
2.245,0.0,0.0,0.0,1.0094607834046758,0.0,0.0,0.5070700025986342,0.0,0.0,0.0,0.0,0.0
2.25,0.0,0.0,0.0,0.7866678722740299,0.0,0.0,0.5008199823888415,0.0,0.0,0.0,0.0,0.0
2.255,0.0,0.0,0.0,1.3822331166531134,0.0,0.0,0.49878229770899585,0.0,0.0,0.0,0.0,0.0
2.2600000000000002,0.0,0.0,0.0,1.547163511268573,0.0,0.0,0.48279668144525156,0.0,0.0,0.0,0.0,0.0
2.265,0.0,0.0,0.0,1.1523465217456441,0.0,0.0,0.5058102939182951,0.0,0.0,0.0,0.0,0.0
2.27,0.0,0.0,0.0,2.0153174327923953,0.0,0.0,0.5035914153176299,0.0,0.0,0.0,0.0,0.0
2.275,0.0,0.0,0.0,1.427444841474588,0.0,0.0,0.5020022969067055,0.0,0.0,0.0,0.0,0.0
2.2800000000000002,0.0,0.0,0.0,1.4507288172334445,0.0,0.0,0.49430251439033285,0.0,0.0,0.0,0.0,0.0
2.285,0.0,0.0,0.0,1.4457204394587087,0.0,0.0,0.48691576420040666,0.0,0.0,0.0,0.0,0.0
2.29,0.0,0.0,0.0,1.7166897081295753,0.0,0.0,0.4935705963593443,0.0,0.0,0.0,0.0,0.0
2.295,0.0,0.0,0.0,0.9078870869833982,0.0,0.0,0.49539883310186267,0.0,0.0,0.0,0.0,0.0
2.3000000000000003,0.0,0.0,0.0,1.8936849042673884,0.0,0.0,0.4938440883907932,0.0,0.0,0.0,0.0,0.0
2.305,0.0,0.0,0.0,1.183646489018041,0.0,0.0,0.5178272759510462,0.0,0.0,0.0,0.0,0.0
2.31,0.0,0.0,0.0,1.2755044802587328,0.0,0.0,0.49388077719649626,0.0,0.0,0.0,0.0,0.0
2.315,0.0,0.0,0.0,0.8823394355902371,0.0,0.0,0.48639367979852227,0.0,0.0,0.0,0.0,0.0
2.32,0.0,0.0,0.0,0.8309306460236058,0.0,0.0,0.5014017145950516,0.0,0.0,0.0,0.0,0.0
2.325,0.0,0.0,0.0,1.1505693980913507,0.0,0.0,0.49633262277129636,0.0,0.0,0.0,0.0,0.0
2.33,0.0,0.0,0.0,1.8265656403060309,0.0,0.0,0.4992929247564526,0.0,0.0,0.0,0.0,0.0
2.335,0.0,0.0,0.0,1.405624818600839,0.0,0.0,0.5011733686210523,0.0,0.0,0.0,0.0,0.0
2.34,0.0,0.0,0.0,1.5464818080068925,0.0,0.0,0.4971866821064271,0.0,0.0,0.0,0.0,0.0
2.345,0.0,0.0,0.0,1.290207915910373,0.0,0.0,0.48184129896662864,0.0,0.0,0.0,0.0,0.0
2.35,0.0,0.0,0.0,1.1608127587908974,0.0,0.0,0.49155929191452,0.0,0.0,0.0,0.0,0.0
2.355,0.0,0.0,0.0,1.0824043301260635,0.0,0.0,0.48906498818713307,0.0,0.0,0.0,0.0,0.0
2.36,0.0,0.0,0.0,1.5101728060469692,0.0,0.0,0.5088524797126653,0.0,0.0,0.0,0.0,0.0
2.365,0.0,0.0,0.0,1.5722874476735507,0.0,0.0,0.5114240785695464,0.0,0.0,0.0,0.0,0.0
2.37,0.0,0.0,0.0,1.634065667253955,0.0,0.0,0.48675986841195734,0.0,0.0,0.0,0.0,0.0
2.375,0.0,0.0,0.0,1.150468826290179,0.0,0.0,0.5051130911952142,0.0,0.0,0.0,0.0,0.0
2.38,0.0,0.0,0.0,1.2789572825213786,0.0,0.0,0.49255900667748387,0.0,0.0,0.0,0.0,0.0
2.3850000000000002,0.0,0.0,0.0,1.1070138410857286,0.0,0.0,0.5186411362835298,0.0,0.0,0.0,0.0,0.0
2.39,0.0,0.0,0.0,1.2203812976067743,0.0,0.0,0.4822395239082823,0.0,0.0,0.0,0.0,0.0
2.395,0.0,0.0,0.0,0.5566795619445131,0.0,0.0,0.48619537944265057,0.0,0.0,0.0,0.0,0.0
2.4,0.0,0.0,0.0,2.118395898889817,0.0,0.0,0.5102475875582878,0.0,0.0,0.0,0.0,0.0
2.4050000000000002,0.0,0.0,0.0,0.841258908731225,0.0,0.0,0.4971729468931911,0.0,0.0,0.0,0.0,0.0
2.41,0.0,0.0,0.0,1.7485589596629012,0.0,0.0,0.5047131746483746,0.0,0.0,0.0,0.0,0.0
2.415,0.0,0.0,0.0,1.2167902121579621,0.0,0.0,0.49729622628385983,0.0,0.0,0.0,0.0,0.0
2.42,0.0,0.0,0.0,1.2590291249557664,0.0,0.0,0.5099431006100668,0.0,0.0,0.0,0.0,0.0
2.4250000000000003,0.0,0.0,0.0,1.8488708433464398,0.0,0.0,0.5097548581108206,0.0,0.0,0.0,0.0,0.0
2.43,0.0,0.0,0.0,1.3900375019246403,0.0,0.0,0.4936063650449868,0.0,0.0,0.0,0.0,0.0
2.435,0.0,0.0,0.0,1.4498021501050176,0.0,0.0,0.5129211481957907,0.0,0.0,0.0,0.0,0.0
2.44,0.0,0.0,0.0,1.2961650129979854,0.0,0.0,0.4804841427285351,0.0,0.0,0.0,0.0,0.0
2.445,0.0,0.0,0.0,1.8182920393213045,0.0,0.0,0.4929438527407902,0.0,0.0,0.0,0.0,0.0
2.45,0.0,0.0,0.0,1.2212208922328966,0.0,0.0,0.48614998987091396,0.0,0.0,0.0,0.0,0.0
2.455,0.0,0.0,0.0,1.605393217467555,0.0,0.0,0.4864209393587311,0.0,0.0,0.0,0.0,0.0
2.46,0.0,0.0,0.0,1.7319095084059104,0.0,0.0,0.5085601169873426,0.0,0.0,0.0,0.0,0.0
2.465,0.0,0.0,0.0,1.4191127415836784,0.0,0.0,0.4945163012126101,0.0,0.0,0.0,0.0,0.0
2.47,0.0,0.0,0.0,1.1450837175547857,0.0,0.0,0.4812589289971028,0.0,0.0,0.0,0.0,0.0
2.475,0.0,0.0,0.0,1.3588083263885558,0.0,0.0,0.49949400876159744,0.0,0.0,0.0,0.0,0.0
2.48,0.0,0.0,0.0,2.1661146409867373,0.0,0.0,0.49418823325287276,0.0,0.0,0.0,0.0,0.0
2.485,0.0,0.0,0.0,1.6845239738497428,0.0,0.0,0.5025005701541152,0.0,0.0,0.0,0.0,0.0
2.49,0.0,0.0,0.0,1.0672776709489327,0.0,0.0,0.49829840150952154,0.0,0.0,0.0,0.0,0.0
2.495,0.0,0.0,0.0,1.5948513670298659,0.0,0.0,0.4829512382568772,0.0,0.0,0.0,0.0,0.0
2.5,0.0,0.0,0.0,1.4724586413151857,0.0,0.0,0.4888285297311544,0.0,0.0,0.0,0.0,0.0
2.505,0.0,0.0,0.0,1.9495529246181234,0.0,0.0,0.4996408673240556,0.0,0.0,0.0,0.0,0.0
2.5100000000000002,0.0,0.0,0.0,1.482891877258423,0.0,0.0,0.5016143364873181,0.0,0.0,0.0,0.0,0.0
2.515,0.0,0.0,0.0,1.8887268044350107,0.0,0.0,0.5006694849453138,0.0,0.0,0.0,0.0,0.0
2.52,0.0,0.0,0.0,1.6577088211088846,0.0,0.0,0.4937490542127368,0.0,0.0,0.0,0.0,0.0
2.525,0.0,0.0,0.0,1.7112492254750264,0.0,0.0,0.49699849267784707,0.0,0.0,0.0,0.0,0.0
2.5300000000000002,0.0,0.0,0.0,1.1792859956800696,0.0,0.0,0.49589548557846747,0.0,0.0,0.0,0.0,0.0
2.535,0.0,0.0,0.0,1.5521594050238123,0.0,0.0,0.4946683493279278,0.0,0.0,0.0,0.0,0.0
2.54,0.0,0.0,0.0,1.900754346874057,0.0,0.0,0.48952946793275676,0.0,0.0,0.0,0.0,0.0
2.545,0.0,0.0,0.0,1.56050758579916,0.0,0.0,0.5087660141783675,0.0,0.0,0.0,0.0,0.0
2.5500000000000003,0.0,0.0,0.0,1.570011103176002,0.0,0.0,0.5002088548993597,0.0,0.0,0.0,0.0,0.0
2.555,0.0,0.0,0.0,1.8176297459528876,0.0,0.0,0.49759578861935005,0.0,0.0,0.0,0.0,0.0
2.56,0.0,0.0,0.0,1.653288742062904,0.0,0.0,0.5022416540387739,0.0,0.0,0.0,0.0,0.0
2.565,0.0,0.0,0.0,1.8881653230230095,0.0,0.0,0.5131871899069443,0.0,0.0,0.0,0.0,0.0
2.57,0.0,0.0,0.0,1.3337272538016298,0.0,0.0,0.5065579517663793,0.0,0.0,0.0,0.0,0.0
2.575,0.0,0.0,0.0,1.2342101339832696,0.0,0.0,0.5062545253621265,0.0,0.0,0.0,0.0,0.0
2.58,0.0,0.0,0.0,1.4408875903134648,0.0,0.0,0.5087658982744263,0.0,0.0,0.0,0.0,0.0
2.585,0.0,0.0,0.0,2.148930095544155,0.0,0.0,0.49343429919102777,0.0,0.0,0.0,0.0,0.0
2.59,0.0,0.0,0.0,1.2830286192495481,0.0,0.0,0.4947963785809415,0.0,0.0,0.0,0.0,0.0
2.595,0.0,0.0,0.0,1.6144119211046042,0.0,0.0,0.4968269822710907,0.0,0.0,0.0,0.0,0.0
2.6,0.0,0.0,0.0,1.7616903487374196,0.0,0.0,0.4996963450441501,0.0,0.0,0.0,0.0,0.0
2.605,0.0,0.0,0.0,2.0757587054870865,0.0,0.0,0.5015976572800716,0.0,0.0,0.0,0.0,0.0
2.61,0.0,0.0,0.0,1.778573398441063,0.0,0.0,0.505607258610517,0.0,0.0,0.0,0.0,0.0
2.615,0.0,0.0,0.0,1.5683825795370245,0.0,0.0,0.5125915419698546,0.0,0.0,0.0,0.0,0.0
2.62,0.0,0.0,0.0,2.0042844393495884,0.0,0.0,0.49486372998560574,0.0,0.0,0.0,0.0,0.0
2.625,0.0,0.0,0.0,1.9899189092987262,0.0,0.0,0.5156406267403638,0.0,0.0,0.0,0.0,0.0
2.63,0.0,0.0,0.0,1.722439349410493,0.0,0.0,0.5000531670517319,0.0,0.0,0.0,0.0,0.0
2.6350000000000002,0.0,0.0,0.0,1.4926107629711232,0.0,0.0,0.4999510553913021,0.0,0.0,0.0,0.0,0.0
2.64,0.0,0.0,0.0,1.6076382910496236,0.0,0.0,0.5185192867683595,0.0,0.0,0.0,0.0,0.0
2.645,0.0,0.0,0.0,1.7369448241055,0.0,0.0,0.5042336098040932,0.0,0.0,0.0,0.0,0.0
2.65,0.0,0.0,0.0,1.965174231119982,0.0,0.0,0.5097063431263651,0.0,0.0,0.0,0.0,0.0
2.6550000000000002,0.0,0.0,0.0,2.669261608264394,0.0,0.0,0.5068099735523598,0.0,0.0,0.0,0.0,0.0
2.66,0.0,0.0,0.0,2.1932804110143858,0.0,0.0,0.4860735368358879,0.0,0.0,0.0,0.0,0.0
2.665,0.0,0.0,0.0,1.7712671376563844,0.0,0.0,0.5212081828254641,0.0,0.0,0.0,0.0,0.0
2.67,0.0,0.0,0.0,1.2566058385643275,0.0,0.0,0.5039373333178223,0.0,0.0,0.0,0.0,0.0
2.6750000000000003,0.0,0.0,0.0,1.4550236247531014,0.0,0.0,0.5014617082334216,0.0,0.0,0.0,0.0,0.0
2.68,0.0,0.0,0.0,1.9135606321294003,0.0,0.0,0.4991525551661236,0.0,0.0,0.0,0.0,0.0
2.685,0.0,0.0,0.0,1.6209340761684272,0.0,0.0,0.4986209364035367,0.0,0.0,0.0,0.0,0.0
2.69,0.0,0.0,0.0,1.9870387781987733,0.0,0.0,0.49858703780581465,0.0,0.0,0.0,0.0,0.0
2.695,0.0,0.0,0.0,1.9885493267107177,0.0,0.0,0.505131719212145,0.0,0.0,0.0,0.0,0.0
2.7,0.0,0.0,0.0,1.5276752906081081,0.0,0.0,0.4949544226577903,0.0,0.0,0.0,0.0,0.0
2.705,0.0,0.0,0.0,2.232787748497894,0.0,0.0,0.4852484913937037,0.0,0.0,0.0,0.0,0.0
2.71,0.0,0.0,0.0,1.4596488828458993,0.0,0.0,0.5046585893140481,0.0,0.0,0.0,0.0,0.0
2.715,0.0,0.0,0.0,2.031056152805165,0.0,0.0,0.4916504245225695,0.0,0.0,0.0,0.0,0.0
2.72,0.0,0.0,0.0,2.127707392637439,0.0,0.0,0.49990234900035535,0.0,0.0,0.0,0.0,0.0
2.725,0.0,0.0,0.0,2.067834690043042,0.0,0.0,0.5108595780306794,0.0,0.0,0.0,0.0,0.0
2.73,0.0,0.0,0.0,2.5596423129999106,0.0,0.0,0.48199107469296737,0.0,0.0,0.0,0.0,0.0
2.735,0.0,0.0,0.0,2.142430299173232,0.0,0.0,0.5030029866511111,0.0,0.0,0.0,0.0,0.0
2.74,0.0,0.0,0.0,2.118062707499423,0.0,0.0,0.4982291301944188,0.0,0.0,0.0,0.0,0.0
2.745,0.0,0.0,0.0,2.3862119615065684,0.0,0.0,0.49439265946443545,0.0,0.0,0.0,0.0,0.0
2.75,0.0,0.0,0.0,2.534475717906253,0.0,0.0,0.49932699046250884,0.0,0.0,0.0,0.0,0.0
2.755,0.0,0.0,0.0,1.7691271606837584,0.0,0.0,0.4844182255280509,0.0,0.0,0.0,0.0,0.0
2.7600000000000002,0.0,0.0,0.0,1.8987207164938413,0.0,0.0,0.5045537933587537,0.0,0.0,0.0,0.0,0.0
2.765,0.0,0.0,0.0,1.8293478938538739,0.0,0.0,0.49770398009496347,0.0,0.0,0.0,0.0,0.0
2.77,0.0,0.0,0.0,1.4402557776785134,0.0,0.0,0.5149890567581399,0.0,0.0,0.0,0.0,0.0
2.775,0.0,0.0,0.0,2.1106944141412503,0.0,0.0,0.5072041521972059,0.0,0.0,0.0,0.0,0.0
2.7800000000000002,0.0,0.0,0.0,1.39823033363449,0.0,0.0,0.5008191637426365,0.0,0.0,0.0,0.0,0.0
2.785,0.0,0.0,0.0,1.976034026800026,0.0,0.0,0.4819964139690334,0.0,0.0,0.0,0.0,0.0
2.79,0.0,0.0,0.0,2.1481813815193167,0.0,0.0,0.5009212360261891,0.0,0.0,0.0,0.0,0.0
2.795,0.0,0.0,0.0,1.679448030133448,0.0,0.0,0.49391835411347745,0.0,0.0,0.0,0.0,0.0
2.8000000000000003,0.0,0.0,0.0,1.822878400135906,0.0,0.0,0.4854365960841635,0.0,0.0,0.0,0.0,0.0
2.805,0.0,0.0,0.0,1.6378942831812742,0.0,0.0,0.49579210735979645,0.0,0.0,0.0,0.0,0.0
2.81,0.0,0.0,0.0,1.0407311186538586,0.0,0.0,0.47696822421043356,0.0,0.0,0.0,0.0,0.0
2.815,0.0,0.0,0.0,2.0493411968375317,0.0,0.0,0.49843641868463684,0.0,0.0,0.0,0.0,0.0
2.82,0.0,0.0,0.0,1.6203687444719388,0.0,0.0,0.4813711274516963,0.0,0.0,0.0,0.0,0.0
2.825,0.0,0.0,0.0,1.7457425832403124,0.0,0.0,0.49835429577713675,0.0,0.0,0.0,0.0,0.0
2.83,0.0,0.0,0.0,1.975061237936177,0.0,0.0,0.49421520697900023,0.0,0.0,0.0,0.0,0.0
2.835,0.0,0.0,0.0,2.655049199534678,0.0,0.0,0.48672558871892996,0.0,0.0,0.0,0.0,0.0
2.84,0.0,0.0,0.0,1.4088518168731226,0.0,0.0,0.5033639831331042,0.0,0.0,0.0,0.0,0.0
2.845,0.0,0.0,0.0,1.7854707080236785,0.0,0.0,0.507738880014485,0.0,0.0,0.0,0.0,0.0
2.85,0.0,0.0,0.0,2.203363639762045,0.0,0.0,0.5002130958174947,0.0,0.0,0.0,0.0,0.0
2.855,0.0,0.0,0.0,1.884168512033707,0.0,0.0,0.48539806672903535,0.0,0.0,0.0,0.0,0.0
2.86,0.0,0.0,0.0,2.4497993938256624,0.0,0.0,0.5195264160560065,0.0,0.0,0.0,0.0,0.0
2.865,0.0,0.0,0.0,2.0749941611683496,0.0,0.0,0.5101983256693248,0.0,0.0,0.0,0.0,0.0
2.87,0.0,0.0,0.0,2.1558295816138937,0.0,0.0,0.4937134929909201,0.0,0.0,0.0,0.0,0.0
2.875,0.0,0.0,0.0,1.659773946876164,0.0,0.0,0.4948739847632923,0.0,0.0,0.0,0.0,0.0
2.88,0.0,0.0,0.0,2.1942616798931005,0.0,0.0,0.49458012447500266,0.0,0.0,0.0,0.0,0.0
2.8850000000000002,0.0,0.0,0.0,1.9412574704794663,0.0,0.0,0.522418605255424,0.0,0.0,0.0,0.0,0.0
2.89,0.0,0.0,0.0,2.5150952091340186,0.0,0.0,0.522324627942547,0.0,0.0,0.0,0.0,0.0
2.895,0.0,0.0,0.0,1.6090150602934699,0.0,0.0,0.5018221887463089,0.0,0.0,0.0,0.0,0.0
2.9,0.0,0.0,0.0,2.425121705878623,0.0,0.0,0.5084895576868119,0.0,0.0,0.0,0.0,0.0
2.9050000000000002,0.0,0.0,0.0,1.919259397768955,0.0,0.0,0.503581453309191,0.0,0.0,0.0,0.0,0.0
2.91,0.0,0.0,0.0,1.8107214583084457,0.0,0.0,0.5009374439883593,0.0,0.0,0.0,0.0,0.0
2.915,0.0,0.0,0.0,1.8229683012697921,0.0,0.0,0.47741015102605794,0.0,0.0,0.0,0.0,0.0
2.92,0.0,0.0,0.0,2.415512187454728,0.0,0.0,0.5162891995116216,0.0,0.0,0.0,0.0,0.0
2.9250000000000003,0.0,0.0,0.0,1.7950119401009905,0.0,0.0,0.5009196223479125,0.0,0.0,0.0,0.0,0.0
2.93,0.0,0.0,0.0,2.108689399224027,0.0,0.0,0.4871523910087777,0.0,0.0,0.0,0.0,0.0
2.935,0.0,0.0,0.0,1.4988440935960545,0.0,0.0,0.5040408072147945,0.0,0.0,0.0,0.0,0.0
2.94,0.0,0.0,0.0,2.1186492321370416,0.0,0.0,0.4945189471159268,0.0,0.0,0.0,0.0,0.0
2.945,0.0,0.0,0.0,2.5034378080154216,0.0,0.0,0.4899148645477231,0.0,0.0,0.0,0.0,0.0
2.95,0.0,0.0,0.0,2.4406452462042942,0.0,0.0,0.48849915000880917,0.0,0.0,0.0,0.0,0.0
2.955,0.0,0.0,0.0,2.323083873810574,0.0,0.0,0.48979751789246384,0.0,0.0,0.0,0.0,0.0
2.96,0.0,0.0,0.0,1.8778465342791306,0.0,0.0,0.4992686743743702,0.0,0.0,0.0,0.0,0.0
2.965,0.0,0.0,0.0,2.153842487053477,0.0,0.0,0.5010247102997728,0.0,0.0,0.0,0.0,0.0
2.97,0.0,0.0,0.0,2.017619166642446,0.0,0.0,0.5011782039369009,0.0,0.0,0.0,0.0,0.0
2.975,0.0,0.0,0.0,1.8888377597577701,0.0,0.0,0.48615080712912917,0.0,0.0,0.0,0.0,0.0
2.98,0.0,0.0,0.0,1.9057284576891969,0.0,0.0,0.49192580723601925,0.0,0.0,0.0,0.0,0.0
2.985,0.0,0.0,0.0,2.1576227327182873,0.0,0.0,0.5161577432634754,0.0,0.0,0.0,0.0,0.0
2.99,0.0,0.0,0.0,2.2447113208178857,0.0,0.0,0.5014083137737769,0.0,0.0,0.0,0.0,0.0
2.995,0.0,0.0,0.0,2.2446291809188526,0.0,0.0,0.5088182634589983,0.0,0.0,0.0,0.0,0.0
3.0,0.0,0.0,0.0,2.5430304976564564,0.0,0.0,0.5078125574608008,0.0,0.0,0.0,0.0,0.0
3.005,0.0,0.0,0.0,2.400750115168404,0.0,0.0,0.5195694698557609,0.0,0.0,0.0,0.0,0.0
3.0100000000000002,0.0,0.0,0.0,2.3793112057768235,0.0,0.0,0.4950755502459662,0.0,0.0,0.0,0.0,0.0
3.015,0.0,0.0,0.0,2.635435412061301,0.0,0.0,0.4953361886415568,0.0,0.0,0.0,0.0,0.0
3.02,0.0,0.0,0.0,2.194740882939356,0.0,0.0,0.5106379340007302,0.0,0.0,0.0,0.0,0.0
3.025,0.0,0.0,0.0,2.096027860745657,0.0,0.0,0.49864128049967343,0.0,0.0,0.0,0.0,0.0
3.0300000000000002,0.0,0.0,0.0,1.928424132031755,0.0,0.0,0.5034047725752773,0.0,0.0,0.0,0.0,0.0
3.035,0.0,0.0,0.0,1.353933664821826,0.0,0.0,0.5031388036549223,0.0,0.0,0.0,0.0,0.0
3.04,0.0,0.0,0.0,2.2343507863787186,0.0,0.0,0.5068760598207712,0.0,0.0,0.0,0.0,0.0
3.045,0.0,0.0,0.0,2.425445831554025,0.0,0.0,0.511864816528482,0.0,0.0,0.0,0.0,0.0
3.0500000000000003,0.0,0.0,0.0,2.133574807961066,0.0,0.0,0.4983184280996847,0.0,0.0,0.0,0.0,0.0
3.055,0.0,0.0,0.0,2.350238181287773,0.0,0.0,0.5005152941933032,0.0,0.0,0.0,0.0,0.0
3.06,0.0,0.0,0.0,2.2461555456017197,0.0,0.0,0.48834928365012076,0.0,0.0,0.0,0.0,0.0
3.065,0.0,0.0,0.0,2.926456385414912,0.0,0.0,0.49681107767302224,0.0,0.0,0.0,0.0,0.0
3.0700000000000003,0.0,0.0,0.0,2.3856363002801766,0.0,0.0,0.5012663526510447,0.0,0.0,0.0,0.0,0.0
3.075,0.0,0.0,0.0,2.2729988912626293,0.0,0.0,0.4939406940792572,0.0,0.0,0.0,0.0,0.0
3.08,0.0,0.0,0.0,2.0299777124195413,0.0,0.0,0.523232540282374,0.0,0.0,0.0,0.0,0.0
3.085,0.0,0.0,0.0,2.068738569320909,0.0,0.0,0.5058190950508569,0.0,0.0,0.0,0.0,0.0
3.09,0.0,0.0,0.0,2.667175153789124,0.0,0.0,0.5016575715371427,0.0,0.0,0.0,0.0,0.0
3.095,0.0,0.0,0.0,2.4886780842393446,0.0,0.0,0.5297929127941495,0.0,0.0,0.0,0.0,0.0
3.1,0.0,0.0,0.0,2.214491071274432,0.0,0.0,0.5071584051637513,0.0,0.0,0.0,0.0,0.0
3.105,0.0,0.0,0.0,2.597177265328217,0.0,0.0,0.5037627694887216,0.0,0.0,0.0,0.0,0.0
3.11,0.0,0.0,0.0,2.609376965372798,0.0,0.0,0.4902609460540725,0.0,0.0,0.0,0.0,0.0
3.115,0.0,0.0,0.0,2.66992136911339,0.0,0.0,0.4984824877215518,0.0,0.0,0.0,0.0,0.0
3.12,0.0,0.0,0.0,2.7563617010234527,0.0,0.0,0.499725464098284,0.0,0.0,0.0,0.0,0.0
3.125,0.0,0.0,0.0,2.0102024751077527,0.0,0.0,0.5018578345347262,0.0,0.0,0.0,0.0,0.0
3.13,0.0,0.0,0.0,2.215120699143845,0.0,0.0,0.49686877109469296,0.0,0.0,0.0,0.0,0.0
3.1350000000000002,0.0,0.0,0.0,2.1141386610313586,0.0,0.0,0.5009388775976537,0.0,0.0,0.0,0.0,0.0
3.14,0.0,0.0,0.0,2.590056377652897,0.0,0.0,0.5004617594738927,0.0,0.0,0.0,0.0,0.0
3.145,0.0,0.0,0.0,2.475042608281589,0.0,0.0,0.482757900216268,0.0,0.0,0.0,0.0,0.0
3.15,0.0,0.0,0.0,2.2337999231886827,0.0,0.0,0.5138660805459393,0.0,0.0,0.0,0.0,0.0
3.1550000000000002,0.0,0.0,0.0,2.0894862412092947,0.0,0.0,0.4917150137480703,0.0,0.0,0.0,0.0,0.0
3.16,0.0,0.0,0.0,2.134827700867261,0.0,0.0,0.5066849116267493,0.0,0.0,0.0,0.0,0.0
3.165,0.0,0.0,0.0,2.1282058955443746,0.0,0.0,0.502105950241161,0.0,0.0,0.0,0.0,0.0
3.17,0.0,0.0,0.0,2.2284840482281787,0.0,0.0,0.49730583573371145,0.0,0.0,0.0,0.0,0.0
3.1750000000000003,0.0,0.0,0.0,2.259292790587197,0.0,0.0,0.492943823956452,0.0,0.0,0.0,0.0,0.0
3.18,0.0,0.0,0.0,2.7310543609079057,0.0,0.0,0.4984444083072728,0.0,0.0,0.0,0.0,0.0
3.185,0.0,0.0,0.0,2.3807643447668436,0.0,0.0,0.49626375426068864,0.0,0.0,0.0,0.0,0.0
3.19,0.0,0.0,0.0,3.0062606165450325,0.0,0.0,0.5039389069340672,0.0,0.0,0.0,0.0,0.0
3.1950000000000003,0.0,0.0,0.0,2.7132493486255886,0.0,0.0,0.500489966381097,0.0,0.0,0.0,0.0,0.0
3.2,0.0,0.0,0.0,3.0168619798535206,0.0,0.0,0.49813464408207175,0.0,0.0,0.0,0.0,0.0
3.205,0.0,0.0,0.0,2.8572360318526875,0.0,0.0,0.49081939501296745,0.0,0.0,0.0,0.0,0.0
3.21,0.0,0.0,0.0,3.0087212654276545,0.0,0.0,0.4960787748731358,0.0,0.0,0.0,0.0,0.0
3.215,0.0,0.0,0.0,2.646352162085309,0.0,0.0,0.5001023168569166,0.0,0.0,0.0,0.0,0.0
3.22,0.0,0.0,0.0,2.6586552766665887,0.0,0.0,0.5143608833016043,0.0,0.0,0.0,0.0,0.0
3.225,0.0,0.0,0.0,2.617887764629392,0.0,0.0,0.5140331343087478,0.0,0.0,0.0,0.0,0.0
3.23,0.0,0.0,0.0,2.4313971921797837,0.0,0.0,0.4858160516579245,0.0,0.0,0.0,0.0,0.0
3.235,0.0,0.0,0.0,2.2251368918404824,0.0,0.0,0.5158045183519646,0.0,0.0,0.0,0.0,0.0
3.24,0.0,0.0,0.0,2.1187828456021296,0.0,0.0,0.5017006391739515,0.0,0.0,0.0,0.0,0.0
3.245,0.0,0.0,0.0,2.2712950838102914,0.0,0.0,0.48408349086831,0.0,0.0,0.0,0.0,0.0
3.25,0.0,0.0,0.0,1.8689028672853636,0.0,0.0,0.4816234376390325,0.0,0.0,0.0,0.0,0.0
3.255,0.0,0.0,0.0,2.435707999733257,0.0,0.0,0.5082144469286316,0.0,0.0,0.0,0.0,0.0
3.2600000000000002,0.0,0.0,0.0,2.5446838366015876,0.0,0.0,0.4827002263967772,0.0,0.0,0.0,0.0,0.0
3.265,0.0,0.0,0.0,2.8143326140475606,0.0,0.0,0.4918449427325791,0.0,0.0,0.0,0.0,0.0
3.27,0.0,0.0,0.0,2.8135374129155752,0.0,0.0,0.5068358016315989,0.0,0.0,0.0,0.0,0.0
3.275,0.0,0.0,0.0,2.8489871740087898,0.0,0.0,0.5174923722175335,0.0,0.0,0.0,0.0,0.0
3.2800000000000002,0.0,0.0,0.0,2.2571605490230393,0.0,0.0,0.5170194433491667,0.0,0.0,0.0,0.0,0.0
3.285,0.0,0.0,0.0,2.5721478717001194,0.0,0.0,0.4902391772116146,0.0,0.0,0.0,0.0,0.0
3.29,0.0,0.0,0.0,2.906191598543155,0.0,0.0,0.5135791725722271,0.0,0.0,0.0,0.0,0.0
3.295,0.0,0.0,0.0,2.81507981712481,0.0,0.0,0.4948810688812994,0.0,0.0,0.0,0.0,0.0
3.3000000000000003,0.0,0.0,0.0,2.623548186089973,0.0,0.0,0.48422822757083633,0.0,0.0,0.0,0.0,0.0
3.305,0.0,0.0,0.0,2.717550787273319,0.0,0.0,0.5092025939481154,0.0,0.0,0.0,0.0,0.0
3.31,0.0,0.0,0.0,2.3371914703227215,0.0,0.0,0.4948711021135914,0.0,0.0,0.0,0.0,0.0
3.315,0.0,0.0,0.0,2.679873761835165,0.0,0.0,0.4896592076870328,0.0,0.0,0.0,0.0,0.0
3.3200000000000003,0.0,0.0,0.0,3.316739585271485,0.0,0.0,0.48592813982411254,0.0,0.0,0.0,0.0,0.0
3.325,0.0,0.0,0.0,2.7042774557039,0.0,0.0,0.5168720593954251,0.0,0.0,0.0,0.0,0.0
3.33,0.0,0.0,0.0,2.396996636379475,0.0,0.0,0.5018244120569649,0.0,0.0,0.0,0.0,0.0
3.335,0.0,0.0,0.0,2.808174914561349,0.0,0.0,0.5237720111488089,0.0,0.0,0.0,0.0,0.0
3.34,0.0,0.0,0.0,3.046385674764742,0.0,0.0,0.5046566982538213,0.0,0.0,0.0,0.0,0.0
3.345,0.0,0.0,0.0,2.714437087476277,0.0,0.0,0.49806533162420563,0.0,0.0,0.0,0.0,0.0
3.35,0.0,0.0,0.0,3.4289737927608717,0.0,0.0,0.49893833348470784,0.0,0.0,0.0,0.0,0.0
3.355,0.0,0.0,0.0,2.453520975201172,0.0,0.0,0.5093645132602758,0.0,0.0,0.0,0.0,0.0
3.36,0.0,0.0,0.0,2.2244118983734897,0.0,0.0,0.5025448696494306,0.0,0.0,0.0,0.0,0.0
3.365,0.0,0.0,0.0,3.097503589432627,0.0,0.0,0.5115744211654764,0.0,0.0,0.0,0.0,0.0
3.37,0.0,0.0,0.0,3.133134492619243,0.0,0.0,0.4968779187310134,0.0,0.0,0.0,0.0,0.0
3.375,0.0,0.0,0.0,2.4899984512765507,0.0,0.0,0.5057984513868966,0.0,0.0,0.0,0.0,0.0
3.38,0.0,0.0,0.0,2.9351905169898864,0.0,0.0,0.5033453441211592,0.0,0.0,0.0,0.0,0.0
3.3850000000000002,0.0,0.0,0.0,2.9996913167859836,0.0,0.0,0.504554469549361,0.0,0.0,0.0,0.0,0.0
3.39,0.0,0.0,0.0,3.0693908906601868,0.0,0.0,0.5001984171830606,0.0,0.0,0.0,0.0,0.0
3.395,0.0,0.0,0.0,2.9014785081768126,0.0,0.0,0.5011317896468362,0.0,0.0,0.0,0.0,0.0
3.4,0.0,0.0,0.0,2.3902387714059556,0.0,0.0,0.4697855252827543,0.0,0.0,0.0,0.0,0.0
3.4050000000000002,0.0,0.0,0.0,2.799864208842292,0.0,0.0,0.4996660719929159,0.0,0.0,0.0,0.0,0.0
3.41,0.0,0.0,0.0,2.7634308877713014,0.0,0.0,0.4907485475798979,0.0,0.0,0.0,0.0,0.0
3.415,0.0,0.0,0.0,2.797024326679454,0.0,0.0,0.5156420015052365,0.0,0.0,0.0,0.0,0.0
3.42,0.0,0.0,0.0,3.9969755821008746,0.0,0.0,0.4781123133501362,0.0,0.0,0.0,0.0,0.0
3.4250000000000003,0.0,0.0,0.0,3.2173706990706044,0.0,0.0,0.48090381152161515,0.0,0.0,0.0,0.0,0.0
3.43,0.0,0.0,0.0,3.198312109033926,0.0,0.0,0.5038168837648573,0.0,0.0,0.0,0.0,0.0
3.435,0.0,0.0,0.0,2.762000300949034,0.0,0.0,0.4793905217047014,0.0,0.0,0.0,0.0,0.0
3.44,0.0,0.0,0.0,3.192718023939948,0.0,0.0,0.5275394844242994,0.0,0.0,0.0,0.0,0.0
3.4450000000000003,0.0,0.0,0.0,2.885959754432468,0.0,0.0,0.4885493868890166,0.0,0.0,0.0,0.0,0.0
3.45,0.0,0.0,0.0,3.3961146281107175,0.0,0.0,0.5074500017919948,0.0,0.0,0.0,0.0,0.0
3.455,0.0,0.0,0.0,2.340859458429711,0.0,0.0,0.5099131512821925,0.0,0.0,0.0,0.0,0.0
3.46,0.0,0.0,0.0,3.213025836414243,0.0,0.0,0.5112071333348716,0.0,0.0,0.0,0.0,0.0
3.465,0.0,0.0,0.0,2.594635678203059,0.0,0.0,0.49812012247441134,0.0,0.0,0.0,0.0,0.0
3.47,0.0,0.0,0.0,2.8796776811795963,0.0,0.0,0.49683738838005376,0.0,0.0,0.0,0.0,0.0
3.475,0.0,0.0,0.0,2.7403497572181545,0.0,0.0,0.5205414473904048,0.0,0.0,0.0,0.0,0.0
3.48,0.0,0.0,0.0,3.265626322557478,0.0,0.0,0.49105057295139587,0.0,0.0,0.0,0.0,0.0
3.485,0.0,0.0,0.0,2.899591930360856,0.0,0.0,0.5141341139635165,0.0,0.0,0.0,0.0,0.0
3.49,0.0,0.0,0.0,2.872518332681226,0.0,0.0,0.5068224162133442,0.0,0.0,0.0,0.0,0.0
3.495,0.0,0.0,0.0,3.3120059771360473,0.0,0.0,0.49775412696362703,0.0,0.0,0.0,0.0,0.0
3.5,0.0,0.0,0.0,3.2385332838577328,0.0,0.0,0.49608330101420484,0.0,0.0,0.0,0.0,0.0
3.505,0.0,0.0,0.0,3.2835415404127013,0.0,0.0,0.5020490108303208,0.0,0.0,0.0,0.0,0.0
3.5100000000000002,0.0,0.0,0.0,3.2276135660230425,0.0,0.0,0.5066078237557391,0.0,0.0,0.0,0.0,0.0
3.515,0.0,0.0,0.0,3.2662953394981318,0.0,0.0,0.49457065713101306,0.0,0.0,0.0,0.0,0.0
3.52,0.0,0.0,0.0,3.2045374978316334,0.0,0.0,0.5033800855264338,0.0,0.0,0.0,0.0,0.0
3.525,0.0,0.0,0.0,2.6271577714855776,0.0,0.0,0.5035571951479765,0.0,0.0,0.0,0.0,0.0
3.5300000000000002,0.0,0.0,0.0,3.033723417185969,0.0,0.0,0.4876022919781701,0.0,0.0,0.0,0.0,0.0
3.535,0.0,0.0,0.0,2.9015516137184982,0.0,0.0,0.5214439451869369,0.0,0.0,0.0,0.0,0.0
3.54,0.0,0.0,0.0,3.539501471420086,0.0,0.0,0.5070210135372595,0.0,0.0,0.0,0.0,0.0
3.545,0.0,0.0,0.0,3.2346145975618588,0.0,0.0,0.5031960519055096,0.0,0.0,0.0,0.0,0.0
3.5500000000000003,0.0,0.0,0.0,3.5977457492992824,0.0,0.0,0.5033478663077898,0.0,0.0,0.0,0.0,0.0
3.555,0.0,0.0,0.0,2.9992363224993985,0.0,0.0,0.5103122115742068,0.0,0.0,0.0,0.0,0.0
3.56,0.0,0.0,0.0,2.2407600119612816,0.0,0.0,0.5081539594315012,0.0,0.0,0.0,0.0,0.0
3.565,0.0,0.0,0.0,3.3176072504321774,0.0,0.0,0.5116542121498238,0.0,0.0,0.0,0.0,0.0
3.5700000000000003,0.0,0.0,0.0,3.5393226374443088,0.0,0.0,0.5004814168925779,0.0,0.0,0.0,0.0,0.0
3.575,0.0,0.0,0.0,3.0535554049307314,0.0,0.0,0.5064185903280144,0.0,0.0,0.0,0.0,0.0
3.58,0.0,0.0,0.0,3.1378418162530544,0.0,0.0,0.487092884447928,0.0,0.0,0.0,0.0,0.0
3.585,0.0,0.0,0.0,3.301899349204484,0.0,0.0,0.5113626522141169,0.0,0.0,0.0,0.0,0.0
3.59,0.0,0.0,0.0,2.934996417617184,0.0,0.0,0.4958532073623226,0.0,0.0,0.0,0.0,0.0
3.595,0.0,0.0,0.0,3.164375934430011,0.0,0.0,0.5166551453040332,0.0,0.0,0.0,0.0,0.0
3.6,0.0,0.0,0.0,2.6929802122888455,0.0,0.0,0.499354092949572,0.0,0.0,0.0,0.0,0.0
3.605,0.0,0.0,0.0,2.959102242868603,0.0,0.0,0.49031867411650004,0.0,0.0,0.0,0.0,0.0
3.61,0.0,0.0,0.0,3.3051368002525052,0.0,0.0,0.51810952649133,0.0,0.0,0.0,0.0,0.0
3.615,0.0,0.0,0.0,3.345474587109101,0.0,0.0,0.49702037986853187,0.0,0.0,0.0,0.0,0.0
3.62,0.0,0.0,0.0,3.921003287000073,0.0,0.0,0.5024161052464765,0.0,0.0,0.0,0.0,0.0
3.625,0.0,0.0,0.0,2.898286533537967,0.0,0.0,0.50399107003377,0.0,0.0,0.0,0.0,0.0
3.63,0.0,0.0,0.0,3.4453631759852206,0.0,0.0,0.49908387635912355,0.0,0.0,0.0,0.0,0.0
3.6350000000000002,0.0,0.0,0.0,3.222691979226218,0.0,0.0,0.4875551060751458,0.0,0.0,0.0,0.0,0.0
3.64,0.0,0.0,0.0,3.1133076590916047,0.0,0.0,0.5031749746550928,0.0,0.0,0.0,0.0,0.0
3.645,0.0,0.0,0.0,3.3775760505574395,0.0,0.0,0.487634267443371,0.0,0.0,0.0,0.0,0.0
3.65,0.0,0.0,0.0,3.030226679597137,0.0,0.0,0.5012804412471126,0.0,0.0,0.0,0.0,0.0
3.6550000000000002,0.0,0.0,0.0,3.5517032255136165,0.0,0.0,0.503293258526465,0.0,0.0,0.0,0.0,0.0
3.66,0.0,0.0,0.0,3.033655524234681,0.0,0.0,0.5045241350584456,0.0,0.0,0.0,0.0,0.0
3.665,0.0,0.0,0.0,2.9810810831559893,0.0,0.0,0.4796722779949411,0.0,0.0,0.0,0.0,0.0
3.67,0.0,0.0,0.0,3.5009046903508665,0.0,0.0,0.5117156771386148,0.0,0.0,0.0,0.0,0.0
3.6750000000000003,0.0,0.0,0.0,3.197747292489926,0.0,0.0,0.5093519272932955,0.0,0.0,0.0,0.0,0.0
3.68,0.0,0.0,0.0,3.3824363453633204,0.0,0.0,0.5007903039072222,0.0,0.0,0.0,0.0,0.0
3.685,0.0,0.0,0.0,3.302854441000281,0.0,0.0,0.5117827286071166,0.0,0.0,0.0,0.0,0.0
3.69,0.0,0.0,0.0,3.5883880659395224,0.0,0.0,0.5020493021173701,0.0,0.0,0.0,0.0,0.0
3.6950000000000003,0.0,0.0,0.0,3.2906719327513922,0.0,0.0,0.501411868516864,0.0,0.0,0.0,0.0,0.0
3.7,0.0,0.0,0.0,3.605900200446758,0.0,0.0,0.5041528452845316,0.0,0.0,0.0,0.0,0.0
3.705,0.0,0.0,0.0,3.1355422552394385,0.0,0.0,0.4855263796017816,0.0,0.0,0.0,0.0,0.0
3.71,0.0,0.0,0.0,3.5872935096459555,0.0,0.0,0.5101290041117013,0.0,0.0,0.0,0.0,0.0
3.715,0.0,0.0,0.0,3.500360310361264,0.0,0.0,0.4952245582833339,0.0,0.0,0.0,0.0,0.0
3.72,0.0,0.0,0.0,3.864145742705214,0.0,0.0,0.49852225002492234,0.0,0.0,0.0,0.0,0.0
3.725,0.0,0.0,0.0,3.8199615937375704,0.0,0.0,0.5173429490183895,0.0,0.0,0.0,0.0,0.0
3.73,0.0,0.0,0.0,3.847877260112586,0.0,0.0,0.4890738491921988,0.0,0.0,0.0,0.0,0.0
3.735,0.0,0.0,0.0,3.804332783392769,0.0,0.0,0.48955422148923444,0.0,0.0,0.0,0.0,0.0
3.74,0.0,0.0,0.0,3.845312658948922,0.0,0.0,0.5038223504929683,0.0,0.0,0.0,0.0,0.0
3.745,0.0,0.0,0.0,3.6015227272106913,0.0,0.0,0.49792823162123,0.0,0.0,0.0,0.0,0.0
3.75,0.0,0.0,0.0,3.677513566191824,0.0,0.0,0.5105138019101279,0.0,0.0,0.0,0.0,0.0
3.755,0.0,0.0,0.0,3.933781073347405,0.0,0.0,0.49345342773390133,0.0,0.0,0.0,0.0,0.0
3.7600000000000002,0.0,0.0,0.0,3.9926190118962572,0.0,0.0,0.5078173597075143,0.0,0.0,0.0,0.0,0.0
3.765,0.0,0.0,0.0,3.460901061295001,0.0,0.0,0.4983405202539601,0.0,0.0,0.0,0.0,0.0
3.77,0.0,0.0,0.0,3.4672330245811875,0.0,0.0,0.5028960599281482,0.0,0.0,0.0,0.0,0.0
3.775,0.0,0.0,0.0,3.255131643342262,0.0,0.0,0.49395149167262387,0.0,0.0,0.0,0.0,0.0
3.7800000000000002,0.0,0.0,0.0,3.6451377056890273,0.0,0.0,0.4951369253950718,0.0,0.0,0.0,0.0,0.0
3.785,0.0,0.0,0.0,3.3647063080206503,0.0,0.0,0.5061285774157925,0.0,0.0,0.0,0.0,0.0
3.79,0.0,0.0,0.0,4.1814207641647965,0.0,0.0,0.506451898959541,0.0,0.0,0.0,0.0,0.0
3.795,0.0,0.0,0.0,3.719082957905605,0.0,0.0,0.5073661907722493,0.0,0.0,0.0,0.0,0.0
3.8000000000000003,0.0,0.0,0.0,4.046762528301787,0.0,0.0,0.5049977883578989,0.0,0.0,0.0,0.0,0.0
3.805,0.0,0.0,0.0,3.7166113848620763,0.0,0.0,0.5081877368395273,0.0,0.0,0.0,0.0,0.0
3.81,0.0,0.0,0.0,3.651752127352791,0.0,0.0,0.5046528557471321,0.0,0.0,0.0,0.0,0.0
3.815,0.0,0.0,0.0,3.7799531218080182,0.0,0.0,0.5081424034301052,0.0,0.0,0.0,0.0,0.0
3.8200000000000003,0.0,0.0,0.0,2.9888646916325143,0.0,0.0,0.5093942654456391,0.0,0.0,0.0,0.0,0.0
3.825,0.0,0.0,0.0,3.7470187416208396,0.0,0.0,0.4946491979255102,0.0,0.0,0.0,0.0,0.0
3.83,0.0,0.0,0.0,3.435266918082277,0.0,0.0,0.4923082975955796,0.0,0.0,0.0,0.0,0.0
3.835,0.0,0.0,0.0,3.4507632218820627,0.0,0.0,0.49548606620423336,0.0,0.0,0.0,0.0,0.0
3.84,0.0,0.0,0.0,3.7796975611410653,0.0,0.0,0.49959322922313276,0.0,0.0,0.0,0.0,0.0
3.845,0.0,0.0,0.0,3.873384378865036,0.0,0.0,0.4833391205717873,0.0,0.0,0.0,0.0,0.0
3.85,0.0,0.0,0.0,3.6876731318827596,0.0,0.0,0.4932767499205977,0.0,0.0,0.0,0.0,0.0
3.855,0.0,0.0,0.0,3.5658706185901474,0.0,0.0,0.49660354155992564,0.0,0.0,0.0,0.0,0.0
3.86,0.0,0.0,0.0,4.209825012458726,0.0,0.0,0.49779284755523456,0.0,0.0,0.0,0.0,0.0
3.865,0.0,0.0,0.0,3.5114551068463795,0.0,0.0,0.49742782154686427,0.0,0.0,0.0,0.0,0.0
3.87,0.0,0.0,0.0,4.018328392836273,0.0,0.0,0.5174129277499782,0.0,0.0,0.0,0.0,0.0
3.875,0.0,0.0,0.0,4.01359242172527,0.0,0.0,0.48897048036020585,0.0,0.0,0.0,0.0,0.0
3.88,0.0,0.0,0.0,3.4398026722618678,0.0,0.0,0.5072004806224666,0.0,0.0,0.0,0.0,0.0
3.8850000000000002,0.0,0.0,0.0,4.021323328529163,0.0,0.0,0.4933417928535535,0.0,0.0,0.0,0.0,0.0
3.89,0.0,0.0,0.0,2.9986827062230446,0.0,0.0,0.488532667410361,0.0,0.0,0.0,0.0,0.0
3.895,0.0,0.0,0.0,4.066232989263975,0.0,0.0,0.5005742436556099,0.0,0.0,0.0,0.0,0.0
3.9,0.0,0.0,0.0,3.426870576715286,0.0,0.0,0.5076574854982605,0.0,0.0,0.0,0.0,0.0
3.9050000000000002,0.0,0.0,0.0,3.5246258361270617,0.0,0.0,0.5066576297607313,0.0,0.0,0.0,0.0,0.0
3.91,0.0,0.0,0.0,3.460387815686006,0.0,0.0,0.5100716863777852,0.0,0.0,0.0,0.0,0.0
3.915,0.0,0.0,0.0,4.156593264443084,0.0,0.0,0.5127855189367195,0.0,0.0,0.0,0.0,0.0
3.92,0.0,0.0,0.0,3.9109759554554264,0.0,0.0,0.49017135308466403,0.0,0.0,0.0,0.0,0.0
3.9250000000000003,0.0,0.0,0.0,3.550125903597788,0.0,0.0,0.4853376355606875,0.0,0.0,0.0,0.0,0.0
3.93,0.0,0.0,0.0,3.586593660140118,0.0,0.0,0.5022821255070996,0.0,0.0,0.0,0.0,0.0
3.935,0.0,0.0,0.0,4.574670619781592,0.0,0.0,0.505395054411438,0.0,0.0,0.0,0.0,0.0
3.94,0.0,0.0,0.0,4.066232501130479,0.0,0.0,0.5119075416576409,0.0,0.0,0.0,0.0,0.0
3.9450000000000003,0.0,0.0,0.0,3.558192216101509,0.0,0.0,0.48483891392544415,0.0,0.0,0.0,0.0,0.0
3.95,0.0,0.0,0.0,4.051106414407737,0.0,0.0,0.49154869536016715,0.0,0.0,0.0,0.0,0.0
3.955,0.0,0.0,0.0,3.56230436462713,0.0,0.0,0.5163605473026666,0.0,0.0,0.0,0.0,0.0
3.96,0.0,0.0,0.0,3.7583054855159035,0.0,0.0,0.5070291265251791,0.0,0.0,0.0,0.0,0.0
3.9650000000000003,0.0,0.0,0.0,4.01466668944853,0.0,0.0,0.4904982245306636,0.0,0.0,0.0,0.0,0.0
3.97,0.0,0.0,0.0,4.09203677989311,0.0,0.0,0.49183338717520003,0.0,0.0,0.0,0.0,0.0
3.975,0.0,0.0,0.0,4.424043897671576,0.0,0.0,0.5078191795511922,0.0,0.0,0.0,0.0,0.0
3.98,0.0,0.0,0.0,3.9786527323897007,0.0,0.0,0.5000674467216698,0.0,0.0,0.0,0.0,0.0
3.985,0.0,0.0,0.0,3.8497361665602736,0.0,0.0,0.4991588325761169,0.0,0.0,0.0,0.0,0.0
3.99,0.0,0.0,0.0,3.7580834681895383,0.0,0.0,0.4815497442046707,0.0,0.0,0.0,0.0,0.0
3.995,0.0,0.0,0.0,4.2413919944146246,0.0,0.0,0.49023989137733043,0.0,0.0,0.0,0.0,0.0
4.0,0.0,0.0,0.0,4.125614610639353,0.0,0.0,0.49682785642051425,0.0,0.0,0.0,0.0,0.0
4.005,0.0,0.0,0.0,3.7100634850894068,0.0,0.0,0.4895168342951596,0.0,0.0,0.0,0.0,0.0
4.01,0.0,0.0,0.0,4.285573467379242,0.0,0.0,0.5289754453634833,0.0,0.0,0.0,0.0,0.0
4.015,0.0,0.0,0.0,4.030974883806697,0.0,0.0,0.49427030966479657,0.0,0.0,0.0,0.0,0.0
4.0200000000000005,0.0,0.0,0.0,3.9759249475033585,0.0,0.0,0.5271711784576466,0.0,0.0,0.0,0.0,0.0
4.025,0.0,0.0,0.0,3.3593411091087906,0.0,0.0,0.5185118020726259,0.0,0.0,0.0,0.0,0.0
4.03,0.0,0.0,0.0,3.9948296281785827,0.0,0.0,0.4935204959285939,0.0,0.0,0.0,0.0,0.0
4.035,0.0,0.0,0.0,4.391151516934504,0.0,0.0,0.5105389045075006,0.0,0.0,0.0,0.0,0.0
4.04,0.0,0.0,0.0,4.156149591966755,0.0,0.0,0.509205326640988,0.0,0.0,0.0,0.0,0.0
4.045,0.0,0.0,0.0,4.060842520840191,0.0,0.0,0.497748811861839,0.0,0.0,0.0,0.0,0.0
4.05,0.0,0.0,0.0,3.465273274223808,0.0,0.0,0.5117914136839415,0.0,0.0,0.0,0.0,0.0
4.055,0.0,0.0,0.0,4.117715586262833,0.0,0.0,0.5112105718831383,0.0,0.0,0.0,0.0,0.0
4.0600000000000005,0.0,0.0,0.0,4.084493482895452,0.0,0.0,0.5173856669316366,0.0,0.0,0.0,0.0,0.0
4.065,0.0,0.0,0.0,3.95426518081543,0.0,0.0,0.5123051653473347,0.0,0.0,0.0,0.0,0.0
4.07,0.0,0.0,0.0,4.086753876097052,0.0,0.0,0.4992145539175952,0.0,0.0,0.0,0.0,0.0
4.075,0.0,0.0,0.0,4.449179440584046,0.0,0.0,0.5168490785767836,0.0,0.0,0.0,0.0,0.0
4.08,0.0,0.0,0.0,4.0695161109488005,0.0,0.0,0.5020241992164178,0.0,0.0,0.0,0.0,0.0
4.085,0.0,0.0,0.0,4.529704640569832,0.0,0.0,0.5124290056892374,0.0,0.0,0.0,0.0,0.0
4.09,0.0,0.0,0.0,4.485744514353623,0.0,0.0,0.4930218544375888,0.0,0.0,0.0,0.0,0.0
4.095,0.0,0.0,0.0,3.9872919449612603,0.0,0.0,0.5033597414595057,0.0,0.0,0.0,0.0,0.0
4.1,0.0,0.0,0.0,3.4832035372384724,0.0,0.0,0.49195253474618067,0.0,0.0,0.0,0.0,0.0
4.105,0.0,0.0,0.0,4.047718919933606,0.0,0.0,0.4984111974573298,0.0,0.0,0.0,0.0,0.0
4.11,0.0,0.0,0.0,4.0967674735615995,0.0,0.0,0.4824740414053491,0.0,0.0,0.0,0.0,0.0
4.115,0.0,0.0,0.0,4.1171521203524675,0.0,0.0,0.5131915381646897,0.0,0.0,0.0,0.0,0.0
4.12,0.0,0.0,0.0,4.660143286830526,0.0,0.0,0.49508891347356765,0.0,0.0,0.0,0.0,0.0
4.125,0.0,0.0,0.0,3.8425768587953044,0.0,0.0,0.5050571255554118,0.0,0.0,0.0,0.0,0.0
4.13,0.0,0.0,0.0,4.049151006443704,0.0,0.0,0.49332886269343973,0.0,0.0,0.0,0.0,0.0
4.135,0.0,0.0,0.0,4.271341453911617,0.0,0.0,0.4995071223797546,0.0,0.0,0.0,0.0,0.0
4.14,0.0,0.0,0.0,4.0162620780510405,0.0,0.0,0.5049330514279377,0.0,0.0,0.0,0.0,0.0
4.1450000000000005,0.0,0.0,0.0,4.592194438739032,0.0,0.0,0.4947924096203918,0.0,0.0,0.0,0.0,0.0
4.15,0.0,0.0,0.0,4.3128042430308255,0.0,0.0,0.4984096948190389,0.0,0.0,0.0,0.0,0.0
4.155,0.0,0.0,0.0,4.009805604250776,0.0,0.0,0.4993968198990336,0.0,0.0,0.0,0.0,0.0
4.16,0.0,0.0,0.0,4.593534260381728,0.0,0.0,0.488209726531569,0.0,0.0,0.0,0.0,0.0
4.165,0.0,0.0,0.0,5.041083758929167,0.0,0.0,0.49235717259100614,0.0,0.0,0.0,0.0,0.0
4.17,0.0,0.0,0.0,4.627668937727538,0.0,0.0,0.49886202838208926,0.0,0.0,0.0,0.0,0.0
4.175,0.0,0.0,0.0,4.2755442725890775,0.0,0.0,0.5024890845876097,0.0,0.0,0.0,0.0,0.0
4.18,0.0,0.0,0.0,4.877099369093271,0.0,0.0,0.5032197694502808,0.0,0.0,0.0,0.0,0.0
4.1850000000000005,0.0,0.0,0.0,4.736788792051475,0.0,0.0,0.5021825412659342,0.0,0.0,0.0,0.0,0.0
4.19,0.0,0.0,0.0,5.275109856825575,0.0,0.0,0.4886135799921979,0.0,0.0,0.0,0.0,0.0
4.195,0.0,0.0,0.0,4.307475745364135,0.0,0.0,0.48591269620041233,0.0,0.0,0.0,0.0,0.0
4.2,0.0,0.0,0.0,4.679656472663018,0.0,0.0,0.5116521162111827,0.0,0.0,0.0,0.0,0.0
4.205,0.0,0.0,0.0,4.593278513996859,0.0,0.0,0.5126585971758343,0.0,0.0,0.0,0.0,0.0
4.21,0.0,0.0,0.0,4.048701128632902,0.0,0.0,0.49379454537297907,0.0,0.0,0.0,0.0,0.0
4.215,0.0,0.0,0.0,4.036512961686628,0.0,0.0,0.5025091552818503,0.0,0.0,0.0,0.0,0.0
4.22,0.0,0.0,0.0,4.5883984467910714,0.0,0.0,0.4868569265262036,0.0,0.0,0.0,0.0,0.0
4.225,0.0,0.0,0.0,4.566060283798369,0.0,0.0,0.5076573627099348,0.0,0.0,0.0,0.0,0.0
4.23,0.0,0.0,0.0,4.99955515263542,0.0,0.0,0.5025219475976245,0.0,0.0,0.0,0.0,0.0
4.235,0.0,0.0,0.0,4.399662383802789,0.0,0.0,0.5105575384110996,0.0,0.0,0.0,0.0,0.0
4.24,0.0,0.0,0.0,4.351365621552739,0.0,0.0,0.5121316668274514,0.0,0.0,0.0,0.0,0.0
4.245,0.0,0.0,0.0,4.6200519439462235,0.0,0.0,0.5100668792192258,0.0,0.0,0.0,0.0,0.0
4.25,0.0,0.0,0.0,4.792676413731152,0.0,0.0,0.513397759509883,0.0,0.0,0.0,0.0,0.0
4.255,0.0,0.0,0.0,4.182483793313968,0.0,0.0,0.48682618989425236,0.0,0.0,0.0,0.0,0.0
4.26,0.0,0.0,0.0,4.695550488332813,0.0,0.0,0.5194154323486487,0.0,0.0,0.0,0.0,0.0
4.265,0.0,0.0,0.0,4.211139549305634,0.0,0.0,0.48921294880136923,0.0,0.0,0.0,0.0,0.0
4.2700000000000005,0.0,0.0,0.0,4.059813096761938,0.0,0.0,0.47850096526402025,0.0,0.0,0.0,0.0,0.0
4.275,0.0,0.0,0.0,4.585954331881172,0.0,0.0,0.4850132297494434,0.0,0.0,0.0,0.0,0.0
4.28,0.0,0.0,0.0,3.668589984603178,0.0,0.0,0.4824277939143995,0.0,0.0,0.0,0.0,0.0
4.285,0.0,0.0,0.0,5.116528860495322,0.0,0.0,0.5137770260338768,0.0,0.0,0.0,0.0,0.0
4.29,0.0,0.0,0.0,4.813782869272054,0.0,0.0,0.5019529078845311,0.0,0.0,0.0,0.0,0.0
4.295,0.0,0.0,0.0,4.51212701298321,0.0,0.0,0.5066305052993544,0.0,0.0,0.0,0.0,0.0
4.3,0.0,0.0,0.0,5.073893890451705,0.0,0.0,0.5004934757264824,0.0,0.0,0.0,0.0,0.0
4.305,0.0,0.0,0.0,4.790386668558487,0.0,0.0,0.5072817320365267,0.0,0.0,0.0,0.0,0.0
4.3100000000000005,0.0,0.0,0.0,4.609195918073766,0.0,0.0,0.48531886573566485,0.0,0.0,0.0,0.0,0.0
4.315,0.0,0.0,0.0,5.0439359031676965,0.0,0.0,0.4912601638114562,0.0,0.0,0.0,0.0,0.0
4.32,0.0,0.0,0.0,4.577601224974301,0.0,0.0,0.5123897930949068,0.0,0.0,0.0,0.0,0.0
4.325,0.0,0.0,0.0,4.445893843201532,0.0,0.0,0.5120328223795269,0.0,0.0,0.0,0.0,0.0
4.33,0.0,0.0,0.0,4.853067000742142,0.0,0.0,0.4993097463337216,0.0,0.0,0.0,0.0,0.0
4.335,0.0,0.0,0.0,4.768730313692715,0.0,0.0,0.5004130021561263,0.0,0.0,0.0,0.0,0.0
4.34,0.0,0.0,0.0,4.758409187975001,0.0,0.0,0.4876534613004847,0.0,0.0,0.0,0.0,0.0
4.345,0.0,0.0,0.0,4.604910877533317,0.0,0.0,0.5128060185188597,0.0,0.0,0.0,0.0,0.0
4.3500000000000005,0.0,0.0,0.0,4.7127137343279655,0.0,0.0,0.48811740076385035,0.0,0.0,0.0,0.0,0.0
4.355,0.0,0.0,0.0,4.6406577834768745,0.0,0.0,0.4879816754500514,0.0,0.0,0.0,0.0,0.0
4.36,0.0,0.0,0.0,4.355466277263,0.0,0.0,0.5049687096699675,0.0,0.0,0.0,0.0,0.0
4.365,0.0,0.0,0.0,4.877296529041774,0.0,0.0,0.49855304169649306,0.0,0.0,0.0,0.0,0.0
4.37,0.0,0.0,0.0,4.556606048300694,0.0,0.0,0.5054386137973667,0.0,0.0,0.0,0.0,0.0
4.375,0.0,0.0,0.0,4.360403094814667,0.0,0.0,0.49473602960652774,0.0,0.0,0.0,0.0,0.0
4.38,0.0,0.0,0.0,4.902677060862252,0.0,0.0,0.49697402051658013,0.0,0.0,0.0,0.0,0.0
4.385,0.0,0.0,0.0,5.0404720746635086,0.0,0.0,0.49493661177660864,0.0,0.0,0.0,0.0,0.0
4.39,0.0,0.0,0.0,4.2853408496957455,0.0,0.0,0.5165690591478772,0.0,0.0,0.0,0.0,0.0
4.3950000000000005,0.0,0.0,0.0,5.333542092807353,0.0,0.0,0.48272387572661973,0.0,0.0,0.0,0.0,0.0
4.4,0.0,0.0,0.0,4.573044483767299,0.0,0.0,0.5055863877983201,0.0,0.0,0.0,0.0,0.0
4.405,0.0,0.0,0.0,5.154362747760944,0.0,0.0,0.5066647519036414,0.0,0.0,0.0,0.0,0.0
4.41,0.0,0.0,0.0,5.262111887673373,0.0,0.0,0.4955800556445207,0.0,0.0,0.0,0.0,0.0
4.415,0.0,0.0,0.0,4.361970660102293,0.0,0.0,0.5049535069770019,0.0,0.0,0.0,0.0,0.0
4.42,0.0,0.0,0.0,4.849834078823885,0.0,0.0,0.4998893188984543,0.0,0.0,0.0,0.0,0.0
4.425,0.0,0.0,0.0,4.8067748521818565,0.0,0.0,0.5073947480331388,0.0,0.0,0.0,0.0,0.0
4.43,0.0,0.0,0.0,4.221712081767956,0.0,0.0,0.4756012691202511,0.0,0.0,0.0,0.0,0.0
4.4350000000000005,0.0,0.0,0.0,5.009660242151201,0.0,0.0,0.5025948759673607,0.0,0.0,0.0,0.0,0.0
4.44,0.0,0.0,0.0,5.155493203574417,0.0,0.0,0.5020436018104985,0.0,0.0,0.0,0.0,0.0
4.445,0.0,0.0,0.0,4.999894947018962,0.0,0.0,0.506185376496839,0.0,0.0,0.0,0.0,0.0
4.45,0.0,0.0,0.0,5.3620312157110455,0.0,0.0,0.5061322130155954,0.0,0.0,0.0,0.0,0.0
4.455,0.0,0.0,0.0,4.578396142071733,0.0,0.0,0.5063765126618156,0.0,0.0,0.0,0.0,0.0
4.46,0.0,0.0,0.0,5.045562394718683,0.0,0.0,0.5131263711885428,0.0,0.0,0.0,0.0,0.0
4.465,0.0,0.0,0.0,4.6758220409684235,0.0,0.0,0.4900348316294311,0.0,0.0,0.0,0.0,0.0
4.47,0.0,0.0,0.0,5.128933528050267,0.0,0.0,0.500212419824686,0.0,0.0,0.0,0.0,0.0
4.4750000000000005,0.0,0.0,0.0,4.74641249881393,0.0,0.0,0.5072889269240834,0.0,0.0,0.0,0.0,0.0
4.48,0.0,0.0,0.0,5.274012640817549,0.0,0.0,0.5196115145100918,0.0,0.0,0.0,0.0,0.0
4.485,0.0,0.0,0.0,5.045743551639406,0.0,0.0,0.512135653019825,0.0,0.0,0.0,0.0,0.0
4.49,0.0,0.0,0.0,5.0078073155012754,0.0,0.0,0.4954724540008731,0.0,0.0,0.0,0.0,0.0
4.495,0.0,0.0,0.0,5.107251160503971,0.0,0.0,0.5196999347532808,0.0,0.0,0.0,0.0,0.0
4.5,0.0,0.0,0.0,4.701833076264318,0.0,0.0,0.4937835196526551,0.0,0.0,0.0,0.0,0.0
4.505,0.0,0.0,0.0,4.988163724835722,0.0,0.0,0.4894925909310486,0.0,0.0,0.0,0.0,0.0
4.51,0.0,0.0,0.0,4.887129880282858,0.0,0.0,0.5065331477796114,0.0,0.0,0.0,0.0,0.0
4.515,0.0,0.0,0.0,4.91489215235455,0.0,0.0,0.5082803106390592,0.0,0.0,0.0,0.0,0.0
4.5200000000000005,0.0,0.0,0.0,5.246748141589785,0.0,0.0,0.510215384206323,0.0,0.0,0.0,0.0,0.0
4.525,0.0,0.0,0.0,5.352314782473421,0.0,0.0,0.5059141291274467,0.0,0.0,0.0,0.0,0.0
4.53,0.0,0.0,0.0,5.136338244262079,0.0,0.0,0.49845673049307787,0.0,0.0,0.0,0.0,0.0
4.535,0.0,0.0,0.0,4.635427086440776,0.0,0.0,0.5127893097911423,0.0,0.0,0.0,0.0,0.0
4.54,0.0,0.0,0.0,5.396165593997399,0.0,0.0,0.500184864575873,0.0,0.0,0.0,0.0,0.0
4.545,0.0,0.0,0.0,4.679093534014713,0.0,0.0,0.508528355205065,0.0,0.0,0.0,0.0,0.0
4.55,0.0,0.0,0.0,5.313902998705944,0.0,0.0,0.5037213277667845,0.0,0.0,0.0,0.0,0.0
4.555,0.0,0.0,0.0,4.657700683415399,0.0,0.0,0.4934033438328444,0.0,0.0,0.0,0.0,0.0
4.5600000000000005,0.0,0.0,0.0,5.553742081608563,0.0,0.0,0.4970623432282279,0.0,0.0,0.0,0.0,0.0
4.565,0.0,0.0,0.0,5.023592282899535,0.0,0.0,0.5141728641690487,0.0,0.0,0.0,0.0,0.0
4.57,0.0,0.0,0.0,4.631316005010816,0.0,0.0,0.49752767073247395,0.0,0.0,0.0,0.0,0.0
4.575,0.0,0.0,0.0,5.378194333227768,0.0,0.0,0.49845496228370745,0.0,0.0,0.0,0.0,0.0
4.58,0.0,0.0,0.0,5.40098740487109,0.0,0.0,0.47862044102424695,0.0,0.0,0.0,0.0,0.0
4.585,0.0,0.0,0.0,5.502669454838348,0.0,0.0,0.511578940130227,0.0,0.0,0.0,0.0,0.0
4.59,0.0,0.0,0.0,5.10905562746855,0.0,0.0,0.49635499072441563,0.0,0.0,0.0,0.0,0.0
4.595,0.0,0.0,0.0,5.021333348722845,0.0,0.0,0.5058113311227432,0.0,0.0,0.0,0.0,0.0
4.6000000000000005,0.0,0.0,0.0,5.8518267999462195,0.0,0.0,0.5127911221316568,0.0,0.0,0.0,0.0,0.0
4.605,0.0,0.0,0.0,4.902857732620401,0.0,0.0,0.4944178833030585,0.0,0.0,0.0,0.0,0.0
4.61,0.0,0.0,0.0,5.660381400262752,0.0,0.0,0.4962585237373925,0.0,0.0,0.0,0.0,0.0
4.615,0.0,0.0,0.0,4.967242510521347,0.0,0.0,0.4994862106606654,0.0,0.0,0.0,0.0,0.0
4.62,0.0,0.0,0.0,5.907688821069403,0.0,0.0,0.4768354444126621,0.0,0.0,0.0,0.0,0.0
4.625,0.0,0.0,0.0,5.808241233862201,0.0,0.0,0.5199675781207855,0.0,0.0,0.0,0.0,0.0
4.63,0.0,0.0,0.0,5.094593438094302,0.0,0.0,0.5127416591715761,0.0,0.0,0.0,0.0,0.0
4.635,0.0,0.0,0.0,6.237731575097973,0.0,0.0,0.4823205811614154,0.0,0.0,0.0,0.0,0.0
4.64,0.0,0.0,0.0,5.541261425907512,0.0,0.0,0.49717725102483024,0.0,0.0,0.0,0.0,0.0
4.6450000000000005,0.0,0.0,0.0,5.694159341913574,0.0,0.0,0.4986671786060103,0.0,0.0,0.0,0.0,0.0
4.65,0.0,0.0,0.0,5.962850359211194,0.0,0.0,0.5058548643024847,0.0,0.0,0.0,0.0,0.0
4.655,0.0,0.0,0.0,6.107992824742784,0.0,0.0,0.4783136194260012,0.0,0.0,0.0,0.0,0.0
4.66,0.0,0.0,0.0,4.847864921522741,0.0,0.0,0.4974905505008007,0.0,0.0,0.0,0.0,0.0
4.665,0.0,0.0,0.0,5.556474580275244,0.0,0.0,0.5182332710139587,0.0,0.0,0.0,0.0,0.0
4.67,0.0,0.0,0.0,5.1613653507460056,0.0,0.0,0.5015335925033119,0.0,0.0,0.0,0.0,0.0
4.675,0.0,0.0,0.0,5.693867043132565,0.0,0.0,0.49278193219320143,0.0,0.0,0.0,0.0,0.0
4.68,0.0,0.0,0.0,5.602634464895215,0.0,0.0,0.5193544800524176,0.0,0.0,0.0,0.0,0.0
4.6850000000000005,0.0,0.0,0.0,5.875173098085564,0.0,0.0,0.5167380327707312,0.0,0.0,0.0,0.0,0.0
4.69,0.0,0.0,0.0,5.852114406020021,0.0,0.0,0.4959755104944044,0.0,0.0,0.0,0.0,0.0
4.695,0.0,0.0,0.0,5.243189743039839,0.0,0.0,0.508779093389315,0.0,0.0,0.0,0.0,0.0
4.7,0.0,0.0,0.0,5.578156010718126,0.0,0.0,0.5056666677809512,0.0,0.0,0.0,0.0,0.0
4.705,0.0,0.0,0.0,5.854942797176313,0.0,0.0,0.48357493732387524,0.0,0.0,0.0,0.0,0.0
4.71,0.0,0.0,0.0,5.57567195209252,0.0,0.0,0.5067509143041969,0.0,0.0,0.0,0.0,0.0
4.715,0.0,0.0,0.0,5.5797209849668565,0.0,0.0,0.5025940352862586,0.0,0.0,0.0,0.0,0.0
4.72,0.0,0.0,0.0,5.568856807224744,0.0,0.0,0.524088376360179,0.0,0.0,0.0,0.0,0.0
4.7250000000000005,0.0,0.0,0.0,6.030117320055382,0.0,0.0,0.48417756171499676,0.0,0.0,0.0,0.0,0.0
4.73,0.0,0.0,0.0,5.449896478786361,0.0,0.0,0.49555826942842784,0.0,0.0,0.0,0.0,0.0
4.735,0.0,0.0,0.0,5.936637240918627,0.0,0.0,0.4776764574063929,0.0,0.0,0.0,0.0,0.0
4.74,0.0,0.0,0.0,5.554802666818527,0.0,0.0,0.4976002611649537,0.0,0.0,0.0,0.0,0.0
4.745,0.0,0.0,0.0,5.630075164862727,0.0,0.0,0.48918641148600034,0.0,0.0,0.0,0.0,0.0
4.75,0.0,0.0,0.0,5.494764558690681,0.0,0.0,0.5064930614205118,0.0,0.0,0.0,0.0,0.0
4.755,0.0,0.0,0.0,5.296167061945188,0.0,0.0,0.5061780751724432,0.0,0.0,0.0,0.0,0.0
4.76,0.0,0.0,0.0,5.637902718241179,0.0,0.0,0.5217291098698236,0.0,0.0,0.0,0.0,0.0
4.765,0.0,0.0,0.0,5.637367753925466,0.0,0.0,0.49582981793465886,0.0,0.0,0.0,0.0,0.0
4.7700000000000005,0.0,0.0,0.0,5.107846987218011,0.0,0.0,0.4993173286771695,0.0,0.0,0.0,0.0,0.0
4.775,0.0,0.0,0.0,6.137754785677226,0.0,0.0,0.4843703106822533,0.0,0.0,0.0,0.0,0.0
4.78,0.0,0.0,0.0,5.4649141902772165,0.0,0.0,0.48503285221258735,0.0,0.0,0.0,0.0,0.0
4.785,0.0,0.0,0.0,5.167979086910693,0.0,0.0,0.4976850727201316,0.0,0.0,0.0,0.0,0.0
4.79,0.0,0.0,0.0,5.614452968729606,0.0,0.0,0.48728264916990605,0.0,0.0,0.0,0.0,0.0
4.795,0.0,0.0,0.0,5.638101105402658,0.0,0.0,0.4753284435045735,0.0,0.0,0.0,0.0,0.0
4.8,0.0,0.0,0.0,5.401306071356998,0.0,0.0,0.5038430532261219,0.0,0.0,0.0,0.0,0.0
4.805,0.0,0.0,0.0,6.491530251082726,0.0,0.0,0.4950103679432645,0.0,0.0,0.0,0.0,0.0
4.8100000000000005,0.0,0.0,0.0,6.071882456313349,0.0,0.0,0.49163850608814785,0.0,0.0,0.0,0.0,0.0
4.815,0.0,0.0,0.0,5.961130071819921,0.0,0.0,0.4954056721334534,0.0,0.0,0.0,0.0,0.0
4.82,0.0,0.0,0.0,5.838395930144632,0.0,0.0,0.500047025561975,0.0,0.0,0.0,0.0,0.0
4.825,0.0,0.0,0.0,5.64905128746238,0.0,0.0,0.48708672629403654,0.0,0.0,0.0,0.0,0.0
4.83,0.0,0.0,0.0,5.52614405651682,0.0,0.0,0.49320601638994016,0.0,0.0,0.0,0.0,0.0
4.835,0.0,0.0,0.0,6.014549956517475,0.0,0.0,0.4829744723639844,0.0,0.0,0.0,0.0,0.0
4.84,0.0,0.0,0.0,5.893558864717796,0.0,0.0,0.49239072707013204,0.0,0.0,0.0,0.0,0.0
4.845,0.0,0.0,0.0,6.169096684691844,0.0,0.0,0.4999558303303892,0.0,0.0,0.0,0.0,0.0
4.8500000000000005,0.0,0.0,0.0,5.661256153240414,0.0,0.0,0.5194958659595529,0.0,0.0,0.0,0.0,0.0
4.855,0.0,0.0,0.0,5.400053842592305,0.0,0.0,0.5030048045477153,0.0,0.0,0.0,0.0,0.0
4.86,0.0,0.0,0.0,5.945683644243115,0.0,0.0,0.4914889622315366,0.0,0.0,0.0,0.0,0.0
4.865,0.0,0.0,0.0,6.087921717791688,0.0,0.0,0.49140703111586237,0.0,0.0,0.0,0.0,0.0
4.87,0.0,0.0,0.0,5.839097645809464,0.0,0.0,0.5118909736617587,0.0,0.0,0.0,0.0,0.0
4.875,0.0,0.0,0.0,6.156940729545282,0.0,0.0,0.5131677027536868,0.0,0.0,0.0,0.0,0.0
4.88,0.0,0.0,0.0,5.712712081706138,0.0,0.0,0.48952205373173885,0.0,0.0,0.0,0.0,0.0
4.885,0.0,0.0,0.0,5.970319800666027,0.0,0.0,0.501982241269266,0.0,0.0,0.0,0.0,0.0
4.89,0.0,0.0,0.0,6.141006566984912,0.0,0.0,0.49913951926376915,0.0,0.0,0.0,0.0,0.0
4.8950000000000005,0.0,0.0,0.0,6.1012840808206175,0.0,0.0,0.4974663317532293,0.0,0.0,0.0,0.0,0.0
4.9,0.0,0.0,0.0,5.951659679171397,0.0,0.0,0.5193005025112192,0.0,0.0,0.0,0.0,0.0
4.905,0.0,0.0,0.0,6.027123737202029,0.0,0.0,0.4966201947091959,0.0,0.0,0.0,0.0,0.0
4.91,0.0,0.0,0.0,5.98969316006234,0.0,0.0,0.49276611157123223,0.0,0.0,0.0,0.0,0.0
4.915,0.0,0.0,0.0,5.876525582441216,0.0,0.0,0.4883864070982979,0.0,0.0,0.0,0.0,0.0
4.92,0.0,0.0,0.0,5.365571201127137,0.0,0.0,0.5126233112234253,0.0,0.0,0.0,0.0,0.0
4.925,0.0,0.0,0.0,5.879295168854799,0.0,0.0,0.5103455761188486,0.0,0.0,0.0,0.0,0.0
4.93,0.0,0.0,0.0,6.317644326862338,0.0,0.0,0.494526307844173,0.0,0.0,0.0,0.0,0.0
4.9350000000000005,0.0,0.0,0.0,6.125265309068136,0.0,0.0,0.49706210950134283,0.0,0.0,0.0,0.0,0.0
4.94,0.0,0.0,0.0,5.8679240953187195,0.0,0.0,0.5042892923264315,0.0,0.0,0.0,0.0,0.0
4.945,0.0,0.0,0.0,6.188821176854602,0.0,0.0,0.5049593525717765,0.0,0.0,0.0,0.0,0.0
4.95,0.0,0.0,0.0,6.167250044159104,0.0,0.0,0.5040723125702983,0.0,0.0,0.0,0.0,0.0
4.955,0.0,0.0,0.0,6.632995878615765,0.0,0.0,0.49765316728467834,0.0,0.0,0.0,0.0,0.0
4.96,0.0,0.0,0.0,6.232025747009142,0.0,0.0,0.5066255615307843,0.0,0.0,0.0,0.0,0.0
4.965,0.0,0.0,0.0,6.678180691119286,0.0,0.0,0.49660097199030695,0.0,0.0,0.0,0.0,0.0
4.97,0.0,0.0,0.0,6.412854680449277,0.0,0.0,0.4962327386120312,0.0,0.0,0.0,0.0,0.0
4.9750000000000005,0.0,0.0,0.0,5.981013263731597,0.0,0.0,0.5057443792420618,0.0,0.0,0.0,0.0,0.0
4.98,0.0,0.0,0.0,5.971529091151845,0.0,0.0,0.49497171474143603,0.0,0.0,0.0,0.0,0.0
4.985,0.0,0.0,0.0,6.368479676082673,0.0,0.0,0.5186918656966201,0.0,0.0,0.0,0.0,0.0
4.99,0.0,0.0,0.0,6.302502585551001,0.0,0.0,0.5104541681902061,0.0,0.0,0.0,0.0,0.0
4.995,0.0,0.0,0.0,6.301120688534694,0.0,0.0,0.4847031788262225,0.0,0.0,0.0,0.0,0.0
5.0,0.0,0.0,0.0,6.316905946822484,0.0,0.0,0.5050029639827915,0.0,0.0,0.0,0.0,0.0
5.005,0.0,0.0,0.0,6.156126368649671,0.0,0.0,0.5106114230177002,0.0,0.0,0.0,0.0,0.0
5.01,0.0,0.0,0.0,6.398151341299482,0.0,0.0,0.4991229988398142,0.0,0.0,0.0,0.0,0.0
5.015,0.0,0.0,0.0,6.2404660542224235,0.0,0.0,0.5043748109357001,0.0,0.0,0.0,0.0,0.0
5.0200000000000005,0.0,0.0,0.0,6.091331502790338,0.0,0.0,0.4893684368630224,0.0,0.0,0.0,0.0,0.0
5.025,0.0,0.0,0.0,6.072269549343519,0.0,0.0,0.49096201771688186,0.0,0.0,0.0,0.0,0.0
5.03,0.0,0.0,0.0,6.129296216395774,0.0,0.0,0.4928550306103506,0.0,0.0,0.0,0.0,0.0
5.035,0.0,0.0,0.0,5.982682755808775,0.0,0.0,0.5057283346719642,0.0,0.0,0.0,0.0,0.0
5.04,0.0,0.0,0.0,6.265146838468656,0.0,0.0,0.5040953942232598,0.0,0.0,0.0,0.0,0.0
5.045,0.0,0.0,0.0,6.370072555740642,0.0,0.0,0.5020014638977368,0.0,0.0,0.0,0.0,0.0
5.05,0.0,0.0,0.0,6.576287216203892,0.0,0.0,0.5167799397707649,0.0,0.0,0.0,0.0,0.0
5.055,0.0,0.0,0.0,6.333050883424164,0.0,0.0,0.5021920320525869,0.0,0.0,0.0,0.0,0.0
5.0600000000000005,0.0,0.0,0.0,6.376629571897661,0.0,0.0,0.4822371446585688,0.0,0.0,0.0,0.0,0.0
5.065,0.0,0.0,0.0,6.523873420045338,0.0,0.0,0.4899057701923168,0.0,0.0,0.0,0.0,0.0
5.07,0.0,0.0,0.0,6.733707762675195,0.0,0.0,0.49806792153171486,0.0,0.0,0.0,0.0,0.0
5.075,0.0,0.0,0.0,6.16994220543705,0.0,0.0,0.5009053372023928,0.0,0.0,0.0,0.0,0.0
5.08,0.0,0.0,0.0,6.289621341271496,0.0,0.0,0.4940488211507401,0.0,0.0,0.0,0.0,0.0
5.085,0.0,0.0,0.0,5.809113505614434,0.0,0.0,0.5048587057032019,0.0,0.0,0.0,0.0,0.0
5.09,0.0,0.0,0.0,6.3719113791497755,0.0,0.0,0.49837929328811253,0.0,0.0,0.0,0.0,0.0
5.095,0.0,0.0,0.0,6.687703717906261,0.0,0.0,0.4961177474087391,0.0,0.0,0.0,0.0,0.0
5.1000000000000005,0.0,0.0,0.0,6.919206541671377,0.0,0.0,0.5069006869256478,0.0,0.0,0.0,0.0,0.0
5.105,0.0,0.0,0.0,6.8970198717557025,0.0,0.0,0.5012119775323546,0.0,0.0,0.0,0.0,0.0
5.11,0.0,0.0,0.0,6.307115150265239,0.0,0.0,0.5253770612725189,0.0,0.0,0.0,0.0,0.0
5.115,0.0,0.0,0.0,6.501392781885499,0.0,0.0,0.4923911528836056,0.0,0.0,0.0,0.0,0.0
5.12,0.0,0.0,0.0,6.470639563904898,0.0,0.0,0.5205596328758756,0.0,0.0,0.0,0.0,0.0
5.125,0.0,0.0,0.0,6.783813648063346,0.0,0.0,0.4850182552305521,0.0,0.0,0.0,0.0,0.0
5.13,0.0,0.0,0.0,6.95919627905778,0.0,0.0,0.5129541014109678,0.0,0.0,0.0,0.0,0.0
5.135,0.0,0.0,0.0,6.642192428155396,0.0,0.0,0.5016638028385949,0.0,0.0,0.0,0.0,0.0
5.14,0.0,0.0,0.0,6.0767356063567295,0.0,0.0,0.5245377019271066,0.0,0.0,0.0,0.0,0.0
5.1450000000000005,0.0,0.0,0.0,6.558279615962016,0.0,0.0,0.4831791214697196,0.0,0.0,0.0,0.0,0.0
5.15,0.0,0.0,0.0,6.873124755657221,0.0,0.0,0.4954025627149,0.0,0.0,0.0,0.0,0.0
5.155,0.0,0.0,0.0,6.86333189917971,0.0,0.0,0.48731213382604244,0.0,0.0,0.0,0.0,0.0
5.16,0.0,0.0,0.0,6.807949890565222,0.0,0.0,0.5089903353513723,0.0,0.0,0.0,0.0,0.0
5.165,0.0,0.0,0.0,6.4923854823184985,0.0,0.0,0.4929392219760779,0.0,0.0,0.0,0.0,0.0
5.17,0.0,0.0,0.0,6.696152474342727,0.0,0.0,0.5124772148178323,0.0,0.0,0.0,0.0,0.0
5.175,0.0,0.0,0.0,6.03074359313747,0.0,0.0,0.5037102261925913,0.0,0.0,0.0,0.0,0.0
5.18,0.0,0.0,0.0,6.924668095068922,0.0,0.0,0.4771488903840255,0.0,0.0,0.0,0.0,0.0
5.1850000000000005,0.0,0.0,0.0,6.264215440434778,0.0,0.0,0.5115594770506139,0.0,0.0,0.0,0.0,0.0
5.19,0.0,0.0,0.0,6.7048212312624305,0.0,0.0,0.494293120009494,0.0,0.0,0.0,0.0,0.0
5.195,0.0,0.0,0.0,6.619066877990775,0.0,0.0,0.5059278736234665,0.0,0.0,0.0,0.0,0.0
5.2,0.0,0.0,0.0,6.346635300977007,0.0,0.0,0.515977607763697,0.0,0.0,0.0,0.0,0.0
5.205,0.0,0.0,0.0,6.606229608870346,0.0,0.0,0.5041146445603514,0.0,0.0,0.0,0.0,0.0
5.21,0.0,0.0,0.0,6.573730913366488,0.0,0.0,0.5075417291516904,0.0,0.0,0.0,0.0,0.0
5.215,0.0,0.0,0.0,7.176858900181495,0.0,0.0,0.5032824469481957,0.0,0.0,0.0,0.0,0.0
5.22,0.0,0.0,0.0,7.23354189055378,0.0,0.0,0.496614475194471,0.0,0.0,0.0,0.0,0.0
5.2250000000000005,0.0,0.0,0.0,6.742243599716467,0.0,0.0,0.48601016572255007,0.0,0.0,0.0,0.0,0.0
5.23,0.0,0.0,0.0,6.531647947144389,0.0,0.0,0.4985155050104074,0.0,0.0,0.0,0.0,0.0
5.235,0.0,0.0,0.0,6.512085829502825,0.0,0.0,0.5084969725959297,0.0,0.0,0.0,0.0,0.0
5.24,0.0,0.0,0.0,7.106918661622661,0.0,0.0,0.5092018051640663,0.0,0.0,0.0,0.0,0.0
5.245,0.0,0.0,0.0,7.064752020688439,0.0,0.0,0.5091396253840597,0.0,0.0,0.0,0.0,0.0
5.25,0.0,0.0,0.0,6.482989314525911,0.0,0.0,0.5005948776720672,0.0,0.0,0.0,0.0,0.0
5.255,0.0,0.0,0.0,6.726487447231021,0.0,0.0,0.5049450694553665,0.0,0.0,0.0,0.0,0.0
5.26,0.0,0.0,0.0,7.011802611919327,0.0,0.0,0.4923904418862039,0.0,0.0,0.0,0.0,0.0
5.265,0.0,0.0,0.0,6.768403868644226,0.0,0.0,0.49606603372604724,0.0,0.0,0.0,0.0,0.0
5.2700000000000005,0.0,0.0,0.0,7.405851557452964,0.0,0.0,0.49960890102396216,0.0,0.0,0.0,0.0,0.0
5.275,0.0,0.0,0.0,6.830442020295959,0.0,0.0,0.4774302000194371,0.0,0.0,0.0,0.0,0.0
5.28,0.0,0.0,0.0,6.516859992084779,0.0,0.0,0.5020264676505772,0.0,0.0,0.0,0.0,0.0
5.285,0.0,0.0,0.0,7.4082469790063445,0.0,0.0,0.4995651841214915,0.0,0.0,0.0,0.0,0.0
5.29,0.0,0.0,0.0,6.640919344307684,0.0,0.0,0.49820146372721996,0.0,0.0,0.0,0.0,0.0
5.295,0.0,0.0,0.0,6.722144066404336,0.0,0.0,0.49762423089361596,0.0,0.0,0.0,0.0,0.0
5.3,0.0,0.0,0.0,7.106544155996901,0.0,0.0,0.49948757696237356,0.0,0.0,0.0,0.0,0.0
5.305,0.0,0.0,0.0,7.399708900157881,0.0,0.0,0.4973618619428427,0.0,0.0,0.0,0.0,0.0
5.3100000000000005,0.0,0.0,0.0,7.047381625849806,0.0,0.0,0.506036681485979,0.0,0.0,0.0,0.0,0.0
5.315,0.0,0.0,0.0,7.095458946165908,0.0,0.0,0.49929847281705575,0.0,0.0,0.0,0.0,0.0
5.32,0.0,0.0,0.0,7.090470862137757,0.0,0.0,0.51307506198229,0.0,0.0,0.0,0.0,0.0
5.325,0.0,0.0,0.0,6.817534171313376,0.0,0.0,0.48652766108587014,0.0,0.0,0.0,0.0,0.0
5.33,0.0,0.0,0.0,7.334445955502771,0.0,0.0,0.5100967282357406,0.0,0.0,0.0,0.0,0.0
5.335,0.0,0.0,0.0,6.543095082750044,0.0,0.0,0.492328010052952,0.0,0.0,0.0,0.0,0.0
5.34,0.0,0.0,0.0,6.662097063697587,0.0,0.0,0.49334086489306117,0.0,0.0,0.0,0.0,0.0
5.345,0.0,0.0,0.0,7.278477406628179,0.0,0.0,0.4971193688336561,0.0,0.0,0.0,0.0,0.0
5.3500000000000005,0.0,0.0,0.0,7.0536058262377574,0.0,0.0,0.49780741373000986,0.0,0.0,0.0,0.0,0.0
5.355,0.0,0.0,0.0,7.018160392578648,0.0,0.0,0.5001300649236572,0.0,0.0,0.0,0.0,0.0
5.36,0.0,0.0,0.0,7.22142393089219,0.0,0.0,0.4993641317464853,0.0,0.0,0.0,0.0,0.0
5.365,0.0,0.0,0.0,7.41945752929168,0.0,0.0,0.49939107735471583,0.0,0.0,0.0,0.0,0.0
5.37,0.0,0.0,0.0,7.287338738175867,0.0,0.0,0.49980639415037,0.0,0.0,0.0,0.0,0.0
5.375,0.0,0.0,0.0,7.657240311221504,0.0,0.0,0.4908533698949457,0.0,0.0,0.0,0.0,0.0
5.38,0.0,0.0,0.0,6.402119664448611,0.0,0.0,0.5074676930842004,0.0,0.0,0.0,0.0,0.0
5.385,0.0,0.0,0.0,6.708567105148615,0.0,0.0,0.5142771379536165,0.0,0.0,0.0,0.0,0.0
5.39,0.0,0.0,0.0,7.282424997305008,0.0,0.0,0.49604060774780695,0.0,0.0,0.0,0.0,0.0
5.3950000000000005,0.0,0.0,0.0,7.5361485690287,0.0,0.0,0.49194153539582797,0.0,0.0,0.0,0.0,0.0
5.4,0.0,0.0,0.0,7.211525711391567,0.0,0.0,0.5089403030583318,0.0,0.0,0.0,0.0,0.0
5.405,0.0,0.0,0.0,7.344284805202504,0.0,0.0,0.4930401668216759,0.0,0.0,0.0,0.0,0.0
5.41,0.0,0.0,0.0,7.0984937046351995,0.0,0.0,0.4961819100136674,0.0,0.0,0.0,0.0,0.0
5.415,0.0,0.0,0.0,7.282817725893229,0.0,0.0,0.5089446864554275,0.0,0.0,0.0,0.0,0.0
5.42,0.0,0.0,0.0,7.374037736032919,0.0,0.0,0.4961347228730543,0.0,0.0,0.0,0.0,0.0
5.425,0.0,0.0,0.0,7.264849853000851,0.0,0.0,0.4956322809303101,0.0,0.0,0.0,0.0,0.0
5.43,0.0,0.0,0.0,7.683283093169672,0.0,0.0,0.5065522817977097,0.0,0.0,0.0,0.0,0.0
5.4350000000000005,0.0,0.0,0.0,6.490741833448944,0.0,0.0,0.515372859170101,0.0,0.0,0.0,0.0,0.0
5.44,0.0,0.0,0.0,7.02019709173316,0.0,0.0,0.5005975721873962,0.0,0.0,0.0,0.0,0.0
5.445,0.0,0.0,0.0,7.901405881196301,0.0,0.0,0.5226727344543772,0.0,0.0,0.0,0.0,0.0
5.45,0.0,0.0,0.0,7.989310393689535,0.0,0.0,0.5101440761771787,0.0,0.0,0.0,0.0,0.0
5.455,0.0,0.0,0.0,7.72252065646541,0.0,0.0,0.5221855814892432,0.0,0.0,0.0,0.0,0.0
5.46,0.0,0.0,0.0,6.974664506493531,0.0,0.0,0.513044625008477,0.0,0.0,0.0,0.0,0.0
5.465,0.0,0.0,0.0,7.423269501589881,0.0,0.0,0.5137576050600279,0.0,0.0,0.0,0.0,0.0
5.47,0.0,0.0,0.0,7.699621740414955,0.0,0.0,0.49339429343335206,0.0,0.0,0.0,0.0,0.0
5.4750000000000005,0.0,0.0,0.0,7.351867273085512,0.0,0.0,0.5208117956767507,0.0,0.0,0.0,0.0,0.0
5.48,0.0,0.0,0.0,8.011956860545633,0.0,0.0,0.501671881016477,0.0,0.0,0.0,0.0,0.0
5.485,0.0,0.0,0.0,7.586932899354151,0.0,0.0,0.4937919491065479,0.0,0.0,0.0,0.0,0.0
5.49,0.0,0.0,0.0,7.257437122680021,0.0,0.0,0.4847112723118068,0.0,0.0,0.0,0.0,0.0
5.495,0.0,0.0,0.0,7.433650473782267,0.0,0.0,0.4975949945751584,0.0,0.0,0.0,0.0,0.0
5.5,0.0,0.0,0.0,6.789900046733318,0.0,0.0,0.5002372517327794,0.0,0.0,0.0,0.0,0.0
5.505,0.0,0.0,0.0,7.274003243609496,0.0,0.0,0.5115519515717458,0.0,0.0,0.0,0.0,0.0
5.51,0.0,0.0,0.0,7.397803427933906,0.0,0.0,0.5063078886161391,0.0,0.0,0.0,0.0,0.0
5.515,0.0,0.0,0.0,7.590658918871523,0.0,0.0,0.5032944612573309,0.0,0.0,0.0,0.0,0.0
5.5200000000000005,0.0,0.0,0.0,7.593282586553808,0.0,0.0,0.5010664559683741,0.0,0.0,0.0,0.0,0.0
5.525,0.0,0.0,0.0,8.053838909345258,0.0,0.0,0.5045299032632018,0.0,0.0,0.0,0.0,0.0
5.53,0.0,0.0,0.0,7.71175692457567,0.0,0.0,0.48254387287982353,0.0,0.0,0.0,0.0,0.0
5.535,0.0,0.0,0.0,8.051718294789016,0.0,0.0,0.4983534817759182,0.0,0.0,0.0,0.0,0.0
5.54,0.0,0.0,0.0,7.688512458793077,0.0,0.0,0.5072320817902295,0.0,0.0,0.0,0.0,0.0
5.545,0.0,0.0,0.0,7.223172064594997,0.0,0.0,0.5024583249433779,0.0,0.0,0.0,0.0,0.0
5.55,0.0,0.0,0.0,7.846386571304354,0.0,0.0,0.4924313776822074,0.0,0.0,0.0,0.0,0.0
5.555,0.0,0.0,0.0,7.965323073220548,0.0,0.0,0.5020385598916088,0.0,0.0,0.0,0.0,0.0
5.5600000000000005,0.0,0.0,0.0,7.877915849154601,0.0,0.0,0.5155396511861928,0.0,0.0,0.0,0.0,0.0
5.565,0.0,0.0,0.0,7.588774651897662,0.0,0.0,0.4987694473384765,0.0,0.0,0.0,0.0,0.0
5.57,0.0,0.0,0.0,7.568812197814861,0.0,0.0,0.4982059077667361,0.0,0.0,0.0,0.0,0.0
5.575,0.0,0.0,0.0,8.085636824064942,0.0,0.0,0.4816273580504491,0.0,0.0,0.0,0.0,0.0
5.58,0.0,0.0,0.0,7.709522192603093,0.0,0.0,0.5013129461868331,0.0,0.0,0.0,0.0,0.0
5.585,0.0,0.0,0.0,7.436093698816477,0.0,0.0,0.4905942837178745,0.0,0.0,0.0,0.0,0.0
5.59,0.0,0.0,0.0,7.997190572495968,0.0,0.0,0.5134704827673733,0.0,0.0,0.0,0.0,0.0
5.595,0.0,0.0,0.0,7.800758200285442,0.0,0.0,0.4974216826499858,0.0,0.0,0.0,0.0,0.0
5.6000000000000005,0.0,0.0,0.0,8.357557862526866,0.0,0.0,0.5026983974224574,0.0,0.0,0.0,0.0,0.0
5.605,0.0,0.0,0.0,7.397647280492037,0.0,0.0,0.48929390591566524,0.0,0.0,0.0,0.0,0.0
5.61,0.0,0.0,0.0,7.817226069735079,0.0,0.0,0.49884775555013544,0.0,0.0,0.0,0.0,0.0
5.615,0.0,0.0,0.0,7.578196423094515,0.0,0.0,0.49518317250164245,0.0,0.0,0.0,0.0,0.0
5.62,0.0,0.0,0.0,8.14200166469687,0.0,0.0,0.505612201604507,0.0,0.0,0.0,0.0,0.0
5.625,0.0,0.0,0.0,7.13830247356565,0.0,0.0,0.4950744358201626,0.0,0.0,0.0,0.0,0.0
5.63,0.0,0.0,0.0,8.058102677162006,0.0,0.0,0.5115403759679014,0.0,0.0,0.0,0.0,0.0
5.635,0.0,0.0,0.0,8.195371482502228,0.0,0.0,0.4935798270756142,0.0,0.0,0.0,0.0,0.0
5.64,0.0,0.0,0.0,8.163283617494477,0.0,0.0,0.4916863982595111,0.0,0.0,0.0,0.0,0.0
5.6450000000000005,0.0,0.0,0.0,7.708748379087558,0.0,0.0,0.5083311188958481,0.0,0.0,0.0,0.0,0.0
5.65,0.0,0.0,0.0,7.886682625715801,0.0,0.0,0.5039641910624183,0.0,0.0,0.0,0.0,0.0
5.655,0.0,0.0,0.0,8.349242583922766,0.0,0.0,0.5009943907323431,0.0,0.0,0.0,0.0,0.0
5.66,0.0,0.0,0.0,8.021535743196688,0.0,0.0,0.47975115063203233,0.0,0.0,0.0,0.0,0.0
5.665,0.0,0.0,0.0,8.418347204102885,0.0,0.0,0.5168817770900682,0.0,0.0,0.0,0.0,0.0
5.67,0.0,0.0,0.0,8.287554867095418,0.0,0.0,0.5028702795222583,0.0,0.0,0.0,0.0,0.0
5.675,0.0,0.0,0.0,8.451856208142646,0.0,0.0,0.4935685110152499,0.0,0.0,0.0,0.0,0.0
5.68,0.0,0.0,0.0,7.9583679070377435,0.0,0.0,0.496152298836854,0.0,0.0,0.0,0.0,0.0
5.6850000000000005,0.0,0.0,0.0,8.024600687352665,0.0,0.0,0.5141236751527803,0.0,0.0,0.0,0.0,0.0
5.69,0.0,0.0,0.0,8.298772187060457,0.0,0.0,0.49223996208416104,0.0,0.0,0.0,0.0,0.0
5.695,0.0,0.0,0.0,7.637625217156155,0.0,0.0,0.4842235811128233,0.0,0.0,0.0,0.0,0.0
5.7,0.0,0.0,0.0,8.026174160044567,0.0,0.0,0.4929055911489213,0.0,0.0,0.0,0.0,0.0
5.705,0.0,0.0,0.0,8.469076744815116,0.0,0.0,0.49246798797903135,0.0,0.0,0.0,0.0,0.0
5.71,0.0,0.0,0.0,8.236153604347239,0.0,0.0,0.49038473682856815,0.0,0.0,0.0,0.0,0.0
5.715,0.0,0.0,0.0,8.524761096482724,0.0,0.0,0.4975245782281124,0.0,0.0,0.0,0.0,0.0
5.72,0.0,0.0,0.0,8.310915661917331,0.0,0.0,0.49707566112697105,0.0,0.0,0.0,0.0,0.0
5.7250000000000005,0.0,0.0,0.0,7.245208692583445,0.0,0.0,0.5024878349310141,0.0,0.0,0.0,0.0,0.0
5.73,0.0,0.0,0.0,8.01293840644882,0.0,0.0,0.48680709388545007,0.0,0.0,0.0,0.0,0.0
5.735,0.0,0.0,0.0,7.708303647104298,0.0,0.0,0.4937042669261456,0.0,0.0,0.0,0.0,0.0
5.74,0.0,0.0,0.0,7.636055804684552,0.0,0.0,0.5034107113278267,0.0,0.0,0.0,0.0,0.0
5.745,0.0,0.0,0.0,8.22467288114407,0.0,0.0,0.49670694963341105,0.0,0.0,0.0,0.0,0.0
5.75,0.0,0.0,0.0,8.609448731259096,0.0,0.0,0.4961100468368812,0.0,0.0,0.0,0.0,0.0
5.755,0.0,0.0,0.0,7.982787255031817,0.0,0.0,0.4954337369885137,0.0,0.0,0.0,0.0,0.0
5.76,0.0,0.0,0.0,8.180066986326059,0.0,0.0,0.5076863432681827,0.0,0.0,0.0,0.0,0.0
5.765,0.0,0.0,0.0,9.024265753717838,0.0,0.0,0.4842939304474366,0.0,0.0,0.0,0.0,0.0
5.7700000000000005,0.0,0.0,0.0,8.339822799910502,0.0,0.0,0.522029924902308,0.0,0.0,0.0,0.0,0.0
5.775,0.0,0.0,0.0,8.183187323752694,0.0,0.0,0.5011801620767454,0.0,0.0,0.0,0.0,0.0
5.78,0.0,0.0,0.0,8.340071703109956,0.0,0.0,0.5014781263086492,0.0,0.0,0.0,0.0,0.0
5.785,0.0,0.0,0.0,7.990858768094276,0.0,0.0,0.5020169957579735,0.0,0.0,0.0,0.0,0.0
5.79,0.0,0.0,0.0,8.264294998223534,0.0,0.0,0.49600277681573907,0.0,0.0,0.0,0.0,0.0
5.795,0.0,0.0,0.0,8.692191086366089,0.0,0.0,0.4857673399378818,0.0,0.0,0.0,0.0,0.0
5.8,0.0,0.0,0.0,8.537596871814108,0.0,0.0,0.5002182163869796,0.0,0.0,0.0,0.0,0.0
5.805,0.0,0.0,0.0,8.4024118281008,0.0,0.0,0.5053686351675207,0.0,0.0,0.0,0.0,0.0
5.8100000000000005,0.0,0.0,0.0,8.23744355954073,0.0,0.0,0.49732707825754485,0.0,0.0,0.0,0.0,0.0
5.815,0.0,0.0,0.0,8.651962089834074,0.0,0.0,0.49309663916053675,0.0,0.0,0.0,0.0,0.0
5.82,0.0,0.0,0.0,8.606516837248186,0.0,0.0,0.5025785054484747,0.0,0.0,0.0,0.0,0.0
5.825,0.0,0.0,0.0,8.517702489344792,0.0,0.0,0.4727350086463185,0.0,0.0,0.0,0.0,0.0
5.83,0.0,0.0,0.0,8.153847919472701,0.0,0.0,0.48696352811066945,0.0,0.0,0.0,0.0,0.0
5.835,0.0,0.0,0.0,8.325157794373645,0.0,0.0,0.5075318806636001,0.0,0.0,0.0,0.0,0.0
5.84,0.0,0.0,0.0,8.784899239796802,0.0,0.0,0.4948797360086945,0.0,0.0,0.0,0.0,0.0
5.845,0.0,0.0,0.0,8.124570461310881,0.0,0.0,0.49914579212678833,0.0,0.0,0.0,0.0,0.0
5.8500000000000005,0.0,0.0,0.0,8.886276984417616,0.0,0.0,0.494514433263709,0.0,0.0,0.0,0.0,0.0
5.855,0.0,0.0,0.0,8.372698003328757,0.0,0.0,0.5080325016699275,0.0,0.0,0.0,0.0,0.0
5.86,0.0,0.0,0.0,9.173345062317022,0.0,0.0,0.5055478714128051,0.0,0.0,0.0,0.0,0.0
5.865,0.0,0.0,0.0,9.336009511964646,0.0,0.0,0.49468100654547226,0.0,0.0,0.0,0.0,0.0
5.87,0.0,0.0,0.0,8.24742628209409,0.0,0.0,0.48184559111172304,0.0,0.0,0.0,0.0,0.0
5.875,0.0,0.0,0.0,8.267536100108076,0.0,0.0,0.5058093947064866,0.0,0.0,0.0,0.0,0.0
5.88,0.0,0.0,0.0,8.701399880198089,0.0,0.0,0.4950338924361322,0.0,0.0,0.0,0.0,0.0
5.885,0.0,0.0,0.0,8.697960761571514,0.0,0.0,0.49974493206875575,0.0,0.0,0.0,0.0,0.0
5.89,0.0,0.0,0.0,9.268356131414887,0.0,0.0,0.49445073309235127,0.0,0.0,0.0,0.0,0.0
5.8950000000000005,0.0,0.0,0.0,8.61005148633493,0.0,0.0,0.5116791159461243,0.0,0.0,0.0,0.0,0.0
5.9,0.0,0.0,0.0,8.56495726603785,0.0,0.0,0.4977144845610562,0.0,0.0,0.0,0.0,0.0
5.905,0.0,0.0,0.0,8.942707705594461,0.0,0.0,0.5005146664292416,0.0,0.0,0.0,0.0,0.0
5.91,0.0,0.0,0.0,8.57930449696875,0.0,0.0,0.4692982005748487,0.0,0.0,0.0,0.0,0.0
5.915,0.0,0.0,0.0,9.30924908234373,0.0,0.0,0.5027912155390318,0.0,0.0,0.0,0.0,0.0
5.92,0.0,0.0,0.0,9.176704690170018,0.0,0.0,0.49395203456861675,0.0,0.0,0.0,0.0,0.0
5.925,0.0,0.0,0.0,8.475296126966906,0.0,0.0,0.4998405104355161,0.0,0.0,0.0,0.0,0.0
5.93,0.0,0.0,0.0,8.364750090591567,0.0,0.0,0.49285684808364916,0.0,0.0,0.0,0.0,0.0
5.9350000000000005,0.0,0.0,0.0,8.767939856253948,0.0,0.0,0.4792801138579985,0.0,0.0,0.0,0.0,0.0
5.94,0.0,0.0,0.0,8.422976849296855,0.0,0.0,0.5210178964016317,0.0,0.0,0.0,0.0,0.0
5.945,0.0,0.0,0.0,8.720435039531566,0.0,0.0,0.5243930170346472,0.0,0.0,0.0,0.0,0.0
5.95,0.0,0.0,0.0,8.490935324598157,0.0,0.0,0.5063717232793877,0.0,0.0,0.0,0.0,0.0
5.955,0.0,0.0,0.0,8.472758336897131,0.0,0.0,0.495737917564471,0.0,0.0,0.0,0.0,0.0
5.96,0.0,0.0,0.0,8.93225825606603,0.0,0.0,0.5185313854002159,0.0,0.0,0.0,0.0,0.0
5.965,0.0,0.0,0.0,8.130358815654457,0.0,0.0,0.5083617302245195,0.0,0.0,0.0,0.0,0.0
5.97,0.0,0.0,0.0,9.050821444850527,0.0,0.0,0.475600613161505,0.0,0.0,0.0,0.0,0.0
5.9750000000000005,0.0,0.0,0.0,9.333220941915009,0.0,0.0,0.5015323931529386,0.0,0.0,0.0,0.0,0.0
5.98,0.0,0.0,0.0,8.842951779485983,0.0,0.0,0.5006679026597792,0.0,0.0,0.0,0.0,0.0
5.985,0.0,0.0,0.0,9.272464415933802,0.0,0.0,0.4853860792686454,0.0,0.0,0.0,0.0,0.0
5.99,0.0,0.0,0.0,9.10023004358192,0.0,0.0,0.494106746978417,0.0,0.0,0.0,0.0,0.0
5.995,0.0,0.0,0.0,9.045473121413966,0.0,0.0,0.4972396643268102,0.0,0.0,0.0,0.0,0.0
6.0,0.0,0.0,0.0,8.994275820969124,0.0,0.0,0.49670540716917977,0.0,0.0,0.0,0.0,0.0
6.005,0.0,0.0,0.0,9.183702517609442,0.0,0.0,0.4913187198355372,0.0,0.0,0.0,0.0,0.0
6.01,0.0,0.0,0.0,8.829860953523012,0.0,0.0,0.49899339238970003,0.0,0.0,0.0,0.0,0.0
6.015000000000001,0.0,0.0,0.0,8.91337412443769,0.0,0.0,0.5086602263961819,0.0,0.0,0.0,0.0,0.0
6.0200000000000005,0.0,0.0,0.0,8.96765005399899,0.0,0.0,0.49281269348222884,0.0,0.0,0.0,0.0,0.0
6.025,0.0,0.0,0.0,8.91100998127928,0.0,0.0,0.49284040038893745,0.0,0.0,0.0,0.0,0.0
6.03,0.0,0.0,0.0,8.768240937465816,0.0,0.0,0.49659599845847935,0.0,0.0,0.0,0.0,0.0
6.035,0.0,0.0,0.0,9.07430585812504,0.0,0.0,0.5026568189223362,0.0,0.0,0.0,0.0,0.0
6.04,0.0,0.0,0.0,9.80969672181221,0.0,0.0,0.4887948657208767,0.0,0.0,0.0,0.0,0.0
6.045,0.0,0.0,0.0,8.908542173987197,0.0,0.0,0.513026184959611,0.0,0.0,0.0,0.0,0.0
6.05,0.0,0.0,0.0,8.922114991263104,0.0,0.0,0.4936183786900822,0.0,0.0,0.0,0.0,0.0
6.055,0.0,0.0,0.0,9.1365027764451,0.0,0.0,0.5107112247859477,0.0,0.0,0.0,0.0,0.0
6.0600000000000005,0.0,0.0,0.0,9.098728436793115,0.0,0.0,0.5083598718114859,0.0,0.0,0.0,0.0,0.0
6.065,0.0,0.0,0.0,8.727343723622973,0.0,0.0,0.49249480417654384,0.0,0.0,0.0,0.0,0.0
6.07,0.0,0.0,0.0,9.256953217108826,0.0,0.0,0.49472243556568646,0.0,0.0,0.0,0.0,0.0
6.075,0.0,0.0,0.0,8.94864517260292,0.0,0.0,0.5127323732018451,0.0,0.0,0.0,0.0,0.0
6.08,0.0,0.0,0.0,9.219775076342927,0.0,0.0,0.5079495855226319,0.0,0.0,0.0,0.0,0.0
6.085,0.0,0.0,0.0,9.1626746313809,0.0,0.0,0.49964269384807775,0.0,0.0,0.0,0.0,0.0
6.09,0.0,0.0,0.0,8.924285831126463,0.0,0.0,0.48784896791426785,0.0,0.0,0.0,0.0,0.0
6.095,0.0,0.0,0.0,8.764160777214109,0.0,0.0,0.4898263461727414,0.0,0.0,0.0,0.0,0.0
6.1000000000000005,0.0,0.0,0.0,9.233014962816231,0.0,0.0,0.5128959794933838,0.0,0.0,0.0,0.0,0.0
6.105,0.0,0.0,0.0,9.048951495422546,0.0,0.0,0.4982549665858059,0.0,0.0,0.0,0.0,0.0
6.11,0.0,0.0,0.0,9.871328578917684,0.0,0.0,0.4967863659809232,0.0,0.0,0.0,0.0,0.0
6.115,0.0,0.0,0.0,9.591608334559728,0.0,0.0,0.490253919730928,0.0,0.0,0.0,0.0,0.0
6.12,0.0,0.0,0.0,9.422492582740425,0.0,0.0,0.5005650217346607,0.0,0.0,0.0,0.0,0.0
6.125,0.0,0.0,0.0,9.535561667127613,0.0,0.0,0.5100219237873252,0.0,0.0,0.0,0.0,0.0
6.13,0.0,0.0,0.0,9.556156869610712,0.0,0.0,0.4923347407079864,0.0,0.0,0.0,0.0,0.0
6.135,0.0,0.0,0.0,8.906486367693166,0.0,0.0,0.46614468492538164,0.0,0.0,0.0,0.0,0.0
6.140000000000001,0.0,0.0,0.0,9.189709271333898,0.0,0.0,0.49846239893933464,0.0,0.0,0.0,0.0,0.0
6.1450000000000005,0.0,0.0,0.0,9.554134658164827,0.0,0.0,0.5060354990200235,0.0,0.0,0.0,0.0,0.0
6.15,0.0,0.0,0.0,9.69639791118426,0.0,0.0,0.5066808675860843,0.0,0.0,0.0,0.0,0.0
6.155,0.0,0.0,0.0,9.847633940841268,0.0,0.0,0.5097924702349199,0.0,0.0,0.0,0.0,0.0
6.16,0.0,0.0,0.0,9.241192068483791,0.0,0.0,0.5110284965368753,0.0,0.0,0.0,0.0,0.0
6.165,0.0,0.0,0.0,9.13736162286734,0.0,0.0,0.5161637561213065,0.0,0.0,0.0,0.0,0.0
6.17,0.0,0.0,0.0,10.02334144683526,0.0,0.0,0.501417010010361,0.0,0.0,0.0,0.0,0.0
6.175,0.0,0.0,0.0,9.7607317023222,0.0,0.0,0.5072042135986388,0.0,0.0,0.0,0.0,0.0
6.18,0.0,0.0,0.0,9.328290116850777,0.0,0.0,0.5018081810759314,0.0,0.0,0.0,0.0,0.0
6.1850000000000005,0.0,0.0,0.0,9.592511688811706,0.0,0.0,0.5050227984381849,0.0,0.0,0.0,0.0,0.0
6.19,0.0,0.0,0.0,9.264839102823931,0.0,0.0,0.4915630839469791,0.0,0.0,0.0,0.0,0.0
6.195,0.0,0.0,0.0,9.999593173715972,0.0,0.0,0.48860181872235603,0.0,0.0,0.0,0.0,0.0
6.2,0.0,0.0,0.0,9.50509480522128,0.0,0.0,0.49519160946822044,0.0,0.0,0.0,0.0,0.0
6.205,0.0,0.0,0.0,10.26117793724956,0.0,0.0,0.5075131345756337,0.0,0.0,0.0,0.0,0.0
6.21,0.0,0.0,0.0,10.018624429527703,0.0,0.0,0.48938873505555364,0.0,0.0,0.0,0.0,0.0
6.215,0.0,0.0,0.0,9.769774000266,0.0,0.0,0.5106463806149527,0.0,0.0,0.0,0.0,0.0
6.22,0.0,0.0,0.0,9.681111989047094,0.0,0.0,0.5002091326020851,0.0,0.0,0.0,0.0,0.0
6.2250000000000005,0.0,0.0,0.0,9.41649393023411,0.0,0.0,0.5103170085717373,0.0,0.0,0.0,0.0,0.0
6.23,0.0,0.0,0.0,8.818883226671195,0.0,0.0,0.48487917714133405,0.0,0.0,0.0,0.0,0.0
6.235,0.0,0.0,0.0,9.551689768781959,0.0,0.0,0.488426685469795,0.0,0.0,0.0,0.0,0.0
6.24,0.0,0.0,0.0,9.804793879365949,0.0,0.0,0.5075266512560286,0.0,0.0,0.0,0.0,0.0
6.245,0.0,0.0,0.0,9.046596340063555,0.0,0.0,0.5044342026035564,0.0,0.0,0.0,0.0,0.0
6.25,0.0,0.0,0.0,9.854197785982146,0.0,0.0,0.49900765006094666,0.0,0.0,0.0,0.0,0.0
6.255,0.0,0.0,0.0,10.126308402201142,0.0,0.0,0.4862789192505433,0.0,0.0,0.0,0.0,0.0
6.26,0.0,0.0,0.0,9.57947397105803,0.0,0.0,0.49043105092822464,0.0,0.0,0.0,0.0,0.0
6.265000000000001,0.0,0.0,0.0,9.366171983104458,0.0,0.0,0.5027674255206518,0.0,0.0,0.0,0.0,0.0
6.2700000000000005,0.0,0.0,0.0,10.143119114888867,0.0,0.0,0.4932798836561273,0.0,0.0,0.0,0.0,0.0
6.275,0.0,0.0,0.0,9.491510146558266,0.0,0.0,0.5025594776791231,0.0,0.0,0.0,0.0,0.0
6.28,0.0,0.0,0.0,10.170891782500279,0.0,0.0,0.5003312513235406,0.0,0.0,0.0,0.0,0.0
6.285,0.0,0.0,0.0,9.719325433728676,0.0,0.0,0.4871829473708383,0.0,0.0,0.0,0.0,0.0
6.29,0.0,0.0,0.0,9.538246744601452,0.0,0.0,0.5049459925811876,0.0,0.0,0.0,0.0,0.0
6.295,0.0,0.0,0.0,9.906966258356926,0.0,0.0,0.5018203035417684,0.0,0.0,0.0,0.0,0.0
6.3,0.0,0.0,0.0,9.287808398178468,0.0,0.0,0.5039290532845128,0.0,0.0,0.0,0.0,0.0
6.305,0.0,0.0,0.0,10.651532012485644,0.0,0.0,0.48171053097667427,0.0,0.0,0.0,0.0,0.0
6.3100000000000005,0.0,0.0,0.0,9.580583696022966,0.0,0.0,0.5031662815815187,0.0,0.0,0.0,0.0,0.0
6.315,0.0,0.0,0.0,9.67010517037478,0.0,0.0,0.4998619188877955,0.0,0.0,0.0,0.0,0.0
6.32,0.0,0.0,0.0,9.56435852858297,0.0,0.0,0.507937998736638,0.0,0.0,0.0,0.0,0.0
6.325,0.0,0.0,0.0,10.093461986805282,0.0,0.0,0.49403719658331385,0.0,0.0,0.0,0.0,0.0
6.33,0.0,0.0,0.0,10.72188057710158,0.0,0.0,0.5117735674619558,0.0,0.0,0.0,0.0,0.0
6.335,0.0,0.0,0.0,10.575971629294518,0.0,0.0,0.5031246743437406,0.0,0.0,0.0,0.0,0.0
6.34,0.0,0.0,0.0,10.122383123214052,0.0,0.0,0.5014133570318954,0.0,0.0,0.0,0.0,0.0
6.345,0.0,0.0,0.0,10.623129706695492,0.0,0.0,0.4984655364898168,0.0,0.0,0.0,0.0,0.0
6.3500000000000005,0.0,0.0,0.0,9.750326698818036,0.0,0.0,0.5138172503230409,0.0,0.0,0.0,0.0,0.0
6.355,0.0,0.0,0.0,10.39258021086639,0.0,0.0,0.4954938350726047,0.0,0.0,0.0,0.0,0.0
6.36,0.0,0.0,0.0,9.475728712445575,0.0,0.0,0.4939294392084374,0.0,0.0,0.0,0.0,0.0
6.365,0.0,0.0,0.0,10.298844984443077,0.0,0.0,0.48262331822405086,0.0,0.0,0.0,0.0,0.0
6.37,0.0,0.0,0.0,9.691573465317495,0.0,0.0,0.5034395018515407,0.0,0.0,0.0,0.0,0.0
6.375,0.0,0.0,0.0,10.166112429979492,0.0,0.0,0.5177807516396161,0.0,0.0,0.0,0.0,0.0
6.38,0.0,0.0,0.0,10.129768843136892,0.0,0.0,0.510939568179354,0.0,0.0,0.0,0.0,0.0
6.385,0.0,0.0,0.0,9.978281201912925,0.0,0.0,0.5012747374923522,0.0,0.0,0.0,0.0,0.0
6.390000000000001,0.0,0.0,0.0,9.473707735123039,0.0,0.0,0.5065878514817606,0.0,0.0,0.0,0.0,0.0
6.3950000000000005,0.0,0.0,0.0,9.883013776291175,0.0,0.0,0.49038288430603183,0.0,0.0,0.0,0.0,0.0
6.4,0.0,0.0,0.0,9.833778300212154,0.0,0.0,0.4959942552969095,0.0,0.0,0.0,0.0,0.0
6.405,0.0,0.0,0.0,10.370518194406365,0.0,0.0,0.4948939809447471,0.0,0.0,0.0,0.0,0.0
6.41,0.0,0.0,0.0,10.298877079200318,0.0,0.0,0.5029220225545561,0.0,0.0,0.0,0.0,0.0
6.415,0.0,0.0,0.0,10.05237755802842,0.0,0.0,0.49920502711354864,0.0,0.0,0.0,0.0,0.0
6.42,0.0,0.0,0.0,10.753333953900778,0.0,0.0,0.5232605414834799,0.0,0.0,0.0,0.0,0.0
6.425,0.0,0.0,0.0,10.769373918977333,0.0,0.0,0.5036516002198576,0.0,0.0,0.0,0.0,0.0
6.43,0.0,0.0,0.0,10.192218051545314,0.0,0.0,0.5157096386905763,0.0,0.0,0.0,0.0,0.0
6.4350000000000005,0.0,0.0,0.0,10.29665277228341,0.0,0.0,0.4853304501885281,0.0,0.0,0.0,0.0,0.0
6.44,0.0,0.0,0.0,10.637323089884184,0.0,0.0,0.5178639569244972,0.0,0.0,0.0,0.0,0.0
6.445,0.0,0.0,0.0,10.327451127514479,0.0,0.0,0.49803580382395984,0.0,0.0,0.0,0.0,0.0
6.45,0.0,0.0,0.0,10.256706972617458,0.0,0.0,0.5002892467917026,0.0,0.0,0.0,0.0,0.0
6.455,0.0,0.0,0.0,10.435843686392998,0.0,0.0,0.5025303167472671,0.0,0.0,0.0,0.0,0.0
6.46,0.0,0.0,0.0,10.634719634641534,0.0,0.0,0.5123780975642158,0.0,0.0,0.0,0.0,0.0
6.465,0.0,0.0,0.0,10.783730741135267,0.0,0.0,0.4892567915725692,0.0,0.0,0.0,0.0,0.0
6.47,0.0,0.0,0.0,10.03924979695617,0.0,0.0,0.5055636451261283,0.0,0.0,0.0,0.0,0.0
6.4750000000000005,0.0,0.0,0.0,10.639763410964488,0.0,0.0,0.5221066625682362,0.0,0.0,0.0,0.0,0.0
6.48,0.0,0.0,0.0,10.626037745079532,0.0,0.0,0.5102074773877289,0.0,0.0,0.0,0.0,0.0
6.485,0.0,0.0,0.0,9.740672698809654,0.0,0.0,0.5058600897143514,0.0,0.0,0.0,0.0,0.0
6.49,0.0,0.0,0.0,9.96564215705558,0.0,0.0,0.49519411673135977,0.0,0.0,0.0,0.0,0.0
6.495,0.0,0.0,0.0,10.433453982790727,0.0,0.0,0.49175392824746433,0.0,0.0,0.0,0.0,0.0
6.5,0.0,0.0,0.0,10.059320232446566,0.0,0.0,0.4964973799539989,0.0,0.0,0.0,0.0,0.0
6.505,0.0,0.0,0.0,10.751467015966126,0.0,0.0,0.4836496021427005,0.0,0.0,0.0,0.0,0.0
6.51,0.0,0.0,0.0,10.932575527652324,0.0,0.0,0.5065532223769779,0.0,0.0,0.0,0.0,0.0
6.515000000000001,0.0,0.0,0.0,10.183582923104607,0.0,0.0,0.5005137010224608,0.0,0.0,0.0,0.0,0.0
6.5200000000000005,0.0,0.0,0.0,10.029490717162746,0.0,0.0,0.49841674600482166,0.0,0.0,0.0,0.0,0.0
6.525,0.0,0.0,0.0,11.276012232003508,0.0,0.0,0.48274112184269596,0.0,0.0,0.0,0.0,0.0
6.53,0.0,0.0,0.0,10.922415409750949,0.0,0.0,0.48706086693530104,0.0,0.0,0.0,0.0,0.0
6.535,0.0,0.0,0.0,9.917010267002798,0.0,0.0,0.47601202443517016,0.0,0.0,0.0,0.0,0.0
6.54,0.0,0.0,0.0,10.839069444763595,0.0,0.0,0.491711574932274,0.0,0.0,0.0,0.0,0.0
6.545,0.0,0.0,0.0,11.13365233355132,0.0,0.0,0.509015843894255,0.0,0.0,0.0,0.0,0.0
6.55,0.0,0.0,0.0,10.796716759445847,0.0,0.0,0.4792459813209926,0.0,0.0,0.0,0.0,0.0
6.555,0.0,0.0,0.0,10.936026497482459,0.0,0.0,0.49238137687358263,0.0,0.0,0.0,0.0,0.0
6.5600000000000005,0.0,0.0,0.0,10.923660756331023,0.0,0.0,0.50199267812181,0.0,0.0,0.0,0.0,0.0
6.565,0.0,0.0,0.0,10.504907631474897,0.0,0.0,0.4951349745176241,0.0,0.0,0.0,0.0,0.0
6.57,0.0,0.0,0.0,10.825713670416565,0.0,0.0,0.4948724271781843,0.0,0.0,0.0,0.0,0.0
6.575,0.0,0.0,0.0,11.024249183850024,0.0,0.0,0.49415973786526285,0.0,0.0,0.0,0.0,0.0
6.58,0.0,0.0,0.0,10.532796125983646,0.0,0.0,0.4889615217291972,0.0,0.0,0.0,0.0,0.0
6.585,0.0,0.0,0.0,11.073856463103448,0.0,0.0,0.48760267797151213,0.0,0.0,0.0,0.0,0.0
6.59,0.0,0.0,0.0,10.604251935823033,0.0,0.0,0.49792109260402634,0.0,0.0,0.0,0.0,0.0
6.595,0.0,0.0,0.0,10.937773194611635,0.0,0.0,0.4941439494609139,0.0,0.0,0.0,0.0,0.0
6.6000000000000005,0.0,0.0,0.0,10.912063509854649,0.0,0.0,0.4979216139098025,0.0,0.0,0.0,0.0,0.0
6.605,0.0,0.0,0.0,10.877044984699252,0.0,0.0,0.5062288239606284,0.0,0.0,0.0,0.0,0.0
6.61,0.0,0.0,0.0,11.586873986083454,0.0,0.0,0.5092074881048995,0.0,0.0,0.0,0.0,0.0
6.615,0.0,0.0,0.0,10.640250049390787,0.0,0.0,0.5013479523630351,0.0,0.0,0.0,0.0,0.0
6.62,0.0,0.0,0.0,11.024779827607976,0.0,0.0,0.5108167688547521,0.0,0.0,0.0,0.0,0.0
6.625,0.0,0.0,0.0,11.37703137354713,0.0,0.0,0.49111932884956855,0.0,0.0,0.0,0.0,0.0
6.63,0.0,0.0,0.0,10.90056944528701,0.0,0.0,0.4909697957702883,0.0,0.0,0.0,0.0,0.0
6.635,0.0,0.0,0.0,11.241949495913312,0.0,0.0,0.5029844862322443,0.0,0.0,0.0,0.0,0.0
6.640000000000001,0.0,0.0,0.0,11.601774420411095,0.0,0.0,0.5105897534132899,0.0,0.0,0.0,0.0,0.0
6.6450000000000005,0.0,0.0,0.0,11.155199095425223,0.0,0.0,0.502358747991136,0.0,0.0,0.0,0.0,0.0
6.65,0.0,0.0,0.0,11.246948020298992,0.0,0.0,0.5051118154686366,0.0,0.0,0.0,0.0,0.0
6.655,0.0,0.0,0.0,10.997223248699655,0.0,0.0,0.5106671644082647,0.0,0.0,0.0,0.0,0.0
6.66,0.0,0.0,0.0,10.89088611214835,0.0,0.0,0.48943849446388143,0.0,0.0,0.0,0.0,0.0
6.665,0.0,0.0,0.0,10.938293773278025,0.0,0.0,0.48452742778826646,0.0,0.0,0.0,0.0,0.0
6.67,0.0,0.0,0.0,11.18004561144857,0.0,0.0,0.4907207452655746,0.0,0.0,0.0,0.0,0.0
6.675,0.0,0.0,0.0,10.663213768845374,0.0,0.0,0.5263894371766067,0.0,0.0,0.0,0.0,0.0
6.68,0.0,0.0,0.0,11.456305099581682,0.0,0.0,0.5197351080650762,0.0,0.0,0.0,0.0,0.0
6.6850000000000005,0.0,0.0,0.0,11.116325319651349,0.0,0.0,0.4886460133828742,0.0,0.0,0.0,0.0,0.0
6.69,0.0,0.0,0.0,10.934314470150724,0.0,0.0,0.4949376445389772,0.0,0.0,0.0,0.0,0.0
6.695,0.0,0.0,0.0,11.012316700361287,0.0,0.0,0.4774447917591397,0.0,0.0,0.0,0.0,0.0
6.7,0.0,0.0,0.0,11.613548644443876,0.0,0.0,0.4925498705264519,0.0,0.0,0.0,0.0,0.0
6.705,0.0,0.0,0.0,11.003147028269167,0.0,0.0,0.5102241093019616,0.0,0.0,0.0,0.0,0.0
6.71,0.0,0.0,0.0,11.0526213233216,0.0,0.0,0.4967413944905334,0.0,0.0,0.0,0.0,0.0
6.715,0.0,0.0,0.0,11.014559165439376,0.0,0.0,0.4956914604273194,0.0,0.0,0.0,0.0,0.0
6.72,0.0,0.0,0.0,11.415928721328001,0.0,0.0,0.5152330040198095,0.0,0.0,0.0,0.0,0.0
6.7250000000000005,0.0,0.0,0.0,11.674507596721764,0.0,0.0,0.5059326828570009,0.0,0.0,0.0,0.0,0.0
6.73,0.0,0.0,0.0,10.753460314447002,0.0,0.0,0.4906332734523923,0.0,0.0,0.0,0.0,0.0
6.735,0.0,0.0,0.0,10.948779784206566,0.0,0.0,0.4883106998594156,0.0,0.0,0.0,0.0,0.0
6.74,0.0,0.0,0.0,11.192500118992097,0.0,0.0,0.5003578727210376,0.0,0.0,0.0,0.0,0.0
6.745,0.0,0.0,0.0,11.46325750270691,0.0,0.0,0.48659211049738466,0.0,0.0,0.0,0.0,0.0
6.75,0.0,0.0,0.0,11.689013947146806,0.0,0.0,0.4917971438223733,0.0,0.0,0.0,0.0,0.0
6.755,0.0,0.0,0.0,11.576874372425646,0.0,0.0,0.5115595255299978,0.0,0.0,0.0,0.0,0.0
6.76,0.0,0.0,0.0,11.169467993034134,0.0,0.0,0.5016677583620449,0.0,0.0,0.0,0.0,0.0
6.765000000000001,0.0,0.0,0.0,11.61808779466414,0.0,0.0,0.4936960599666137,0.0,0.0,0.0,0.0,0.0
6.7700000000000005,0.0,0.0,0.0,11.383130270694028,0.0,0.0,0.4990515728507999,0.0,0.0,0.0,0.0,0.0
6.775,0.0,0.0,0.0,11.263944175727145,0.0,0.0,0.5148916677957582,0.0,0.0,0.0,0.0,0.0
6.78,0.0,0.0,0.0,11.881877860848217,0.0,0.0,0.493074141708701,0.0,0.0,0.0,0.0,0.0
6.785,0.0,0.0,0.0,12.27067443864265,0.0,0.0,0.486840874208467,0.0,0.0,0.0,0.0,0.0
6.79,0.0,0.0,0.0,11.171616058627949,0.0,0.0,0.5038511551388661,0.0,0.0,0.0,0.0,0.0
6.795,0.0,0.0,0.0,11.758384658163639,0.0,0.0,0.49828490122291363,0.0,0.0,0.0,0.0,0.0
6.8,0.0,0.0,0.0,12.136871426113974,0.0,0.0,0.5125520035931025,0.0,0.0,0.0,0.0,0.0
6.805,0.0,0.0,0.0,11.954408379167402,0.0,0.0,0.5185598306123653,0.0,0.0,0.0,0.0,0.0
6.8100000000000005,0.0,0.0,0.0,10.653977219598781,0.0,0.0,0.5021258886389824,0.0,0.0,0.0,0.0,0.0
6.815,0.0,0.0,0.0,11.975156714259775,0.0,0.0,0.5145632670896837,0.0,0.0,0.0,0.0,0.0
6.82,0.0,0.0,0.0,11.66781476097679,0.0,0.0,0.500631010128528,0.0,0.0,0.0,0.0,0.0
6.825,0.0,0.0,0.0,11.186815742434156,0.0,0.0,0.5154820624425065,0.0,0.0,0.0,0.0,0.0
6.83,0.0,0.0,0.0,12.025989595627234,0.0,0.0,0.4870945080645394,0.0,0.0,0.0,0.0,0.0
6.835,0.0,0.0,0.0,11.897042546371493,0.0,0.0,0.4976166445551997,0.0,0.0,0.0,0.0,0.0
6.84,0.0,0.0,0.0,11.246946149839093,0.0,0.0,0.5001447843583794,0.0,0.0,0.0,0.0,0.0
6.845,0.0,0.0,0.0,11.544505056708507,0.0,0.0,0.5128629542333364,0.0,0.0,0.0,0.0,0.0
6.8500000000000005,0.0,0.0,0.0,11.758583466695807,0.0,0.0,0.5056373885314736,0.0,0.0,0.0,0.0,0.0
6.855,0.0,0.0,0.0,11.73821491766441,0.0,0.0,0.4908403241437567,0.0,0.0,0.0,0.0,0.0
6.86,0.0,0.0,0.0,12.288973701035038,0.0,0.0,0.5012542410741269,0.0,0.0,0.0,0.0,0.0
6.865,0.0,0.0,0.0,11.69551937510178,0.0,0.0,0.5071918318837133,0.0,0.0,0.0,0.0,0.0
6.87,0.0,0.0,0.0,11.325003865035203,0.0,0.0,0.479784442953135,0.0,0.0,0.0,0.0,0.0
6.875,0.0,0.0,0.0,11.869303353232448,0.0,0.0,0.4779384019643588,0.0,0.0,0.0,0.0,0.0
6.88,0.0,0.0,0.0,12.000784083484032,0.0,0.0,0.49405584574522937,0.0,0.0,0.0,0.0,0.0
6.885,0.0,0.0,0.0,11.942617889785875,0.0,0.0,0.5056583968897873,0.0,0.0,0.0,0.0,0.0
6.890000000000001,0.0,0.0,0.0,12.301001168117914,0.0,0.0,0.49998147590505704,0.0,0.0,0.0,0.0,0.0
6.8950000000000005,0.0,0.0,0.0,11.51995783759644,0.0,0.0,0.5021609738716944,0.0,0.0,0.0,0.0,0.0
6.9,0.0,0.0,0.0,11.82280572237891,0.0,0.0,0.5025921440806523,0.0,0.0,0.0,0.0,0.0
6.905,0.0,0.0,0.0,12.161259370618458,0.0,0.0,0.506861708070078,0.0,0.0,0.0,0.0,0.0
6.91,0.0,0.0,0.0,11.718043250427055,0.0,0.0,0.502209467263785,0.0,0.0,0.0,0.0,0.0
6.915,0.0,0.0,0.0,11.481872053205995,0.0,0.0,0.49451193967445406,0.0,0.0,0.0,0.0,0.0
6.92,0.0,0.0,0.0,11.518391453463359,0.0,0.0,0.4957875627160134,0.0,0.0,0.0,0.0,0.0
6.925,0.0,0.0,0.0,12.04149849884774,0.0,0.0,0.5046852620743519,0.0,0.0,0.0,0.0,0.0
6.93,0.0,0.0,0.0,12.576621235850508,0.0,0.0,0.49368147153652386,0.0,0.0,0.0,0.0,0.0
6.9350000000000005,0.0,0.0,0.0,11.538742923559605,0.0,0.0,0.49734475281779283,0.0,0.0,0.0,0.0,0.0
6.94,0.0,0.0,0.0,11.494043414138032,0.0,0.0,0.4893559040323847,0.0,0.0,0.0,0.0,0.0
6.945,0.0,0.0,0.0,12.084345221955914,0.0,0.0,0.5104825008566595,0.0,0.0,0.0,0.0,0.0
6.95,0.0,0.0,0.0,12.439279189462264,0.0,0.0,0.5021091111909548,0.0,0.0,0.0,0.0,0.0
6.955,0.0,0.0,0.0,12.392647032354986,0.0,0.0,0.5038379493584634,0.0,0.0,0.0,0.0,0.0
6.96,0.0,0.0,0.0,12.33839188770263,0.0,0.0,0.49479005087328976,0.0,0.0,0.0,0.0,0.0
6.965,0.0,0.0,0.0,12.453668621996817,0.0,0.0,0.4955774982043584,0.0,0.0,0.0,0.0,0.0
6.97,0.0,0.0,0.0,12.57027529160475,0.0,0.0,0.5067617906249202,0.0,0.0,0.0,0.0,0.0
6.9750000000000005,0.0,0.0,0.0,12.438288910104458,0.0,0.0,0.4988987275386003,0.0,0.0,0.0,0.0,0.0
6.98,0.0,0.0,0.0,11.696946285599939,0.0,0.0,0.4905993745939238,0.0,0.0,0.0,0.0,0.0
6.985,0.0,0.0,0.0,11.87947784060804,0.0,0.0,0.49331321140554063,0.0,0.0,0.0,0.0,0.0
6.99,0.0,0.0,0.0,12.488295597800608,0.0,0.0,0.5065798533660392,0.0,0.0,0.0,0.0,0.0
6.995,0.0,0.0,0.0,12.211639399561875,0.0,0.0,0.4944907283339406,0.0,0.0,0.0,0.0,0.0
7.0,0.0,0.0,0.0,12.140425673351103,0.0,0.0,0.508238299114319,0.0,0.0,0.0,0.0,0.0
7.005,0.0,0.0,0.0,13.027933004327457,0.0,0.0,0.48349260306803277,0.0,0.0,0.0,0.0,0.0
7.01,0.0,0.0,0.0,12.65885112414353,0.0,0.0,0.49872666836657803,0.0,0.0,0.0,0.0,0.0
7.015000000000001,0.0,0.0,0.0,12.580131367848024,0.0,0.0,0.48811478129949093,0.0,0.0,0.0,0.0,0.0
7.0200000000000005,0.0,0.0,0.0,11.789905745651799,0.0,0.0,0.5128615979231645,0.0,0.0,0.0,0.0,0.0
7.025,0.0,0.0,0.0,12.218164012103774,0.0,0.0,0.48374115556681924,0.0,0.0,0.0,0.0,0.0
7.03,0.0,0.0,0.0,12.442009599243564,0.0,0.0,0.5073620394959248,0.0,0.0,0.0,0.0,0.0
7.035,0.0,0.0,0.0,12.483711318597651,0.0,0.0,0.5052735481179184,0.0,0.0,0.0,0.0,0.0
7.04,0.0,0.0,0.0,12.154680439372715,0.0,0.0,0.5025058408053177,0.0,0.0,0.0,0.0,0.0
